onset	duration	trial_type	accuracy	response_time	A_stim	B_stim
0.0	4.0	2	0	1.151	slour.bmp	vour.bmp
4.008000000000003	4.0	5	1	1.827	blackcross.bmp	blackcross.bmp
8.015999999999998	4.0	6	1	1.366	a.bmp	s.bmp
12.024000000000001	4.0	3	0	0.818	reash.bmp	sliche.bmp
16.031999999999996	4.4	5	1	1.964	blackcross.bmp	blackcross.bmp
20.439999999999998	4.4	6	0	1.396	i.bmp	j.bmp
24.849000000000004	4.4	1	0	1.65	treens.bmp	smeens.bmp
29.257999999999996	4.4	1	1	1.143	vuss.bmp	duss.bmp
33.666	4.8	6	1	1.277	f.bmp	n.bmp
38.476	4.8	1	1	0.766	zurf.bmp	hurf.bmp
43.285	4.8	5	1	1.373	blackcross.bmp	blackcross.bmp
48.095	4.8	1	0	2.237	crelm.bmp	melm.bmp
52.903999999999996	4.0	2	0	0.962	clease.bmp	prease.bmp
56.912000000000006	4.0	1	1	0.722	twirt.bmp	stirt.bmp
60.92	4.4	3	0	1.247	slurl.bmp	dirl.bmp
65.329	4.4	4	0	2.129	blease.bmp	seaf.bmp
69.737	4.4	5	1	1.354	blackcross.bmp	blackcross.bmp
74.146	4.8	5	1	1.458	blackcross.bmp	blackcross.bmp
78.956	4.8	4	1	1.146	quarf.bmp	ralve.bmp
83.765	4.8	6	0	1.697	m.bmp	n.bmp
88.575	4.8	1	0	1.456	clurl.bmp	turl.bmp
93.384	4.8	6	1	1.471	r.bmp	s.bmp
98.194	4.0	5	1	1.557	blackcross.bmp	blackcross.bmp
102.20100000000001	4.0	3	0	1.835	brunge.bmp	skonge.bmp
106.20899999999999	4.0	4	0	n/a	strough.bmp	wouth.bmp
110.217	4.4	6	1	1.411	l.bmp	d.bmp
114.62599999999999	4.4	5	1	1.569	blackcross.bmp	blackcross.bmp
119.03500000000001	4.4	5	1	1.55	blackcross.bmp	blackcross.bmp
123.443	4.4	5	1	1.948	blackcross.bmp	blackcross.bmp
127.85199999999999	4.8	5	1	1.791	blackcross.bmp	blackcross.bmp
132.661	4.8	1	0	1.161	crense.bmp	nense.bmp
137.471	4.8	5	1	1.906	blackcross.bmp	blackcross.bmp
142.27999999999997	4.0	2	0	2.304	twough.bmp	drough.bmp
146.288	4.0	2	1	1.918	twarf.bmp	starf.bmp
150.296	4.0	5	1	1.384	blackcross.bmp	blackcross.bmp
154.30399999999997	4.0	2	0	0.971	meaf.bmp	teaf.bmp
158.312	4.0	6	1	1.027	t.bmp	u.bmp
162.32	4.4	5	1	1.279	blackcross.bmp	blackcross.bmp
166.72899999999998	4.4	5	1	1.409	blackcross.bmp	blackcross.bmp
171.137	4.4	5	1	1.386	blackcross.bmp	blackcross.bmp
175.546	4.4	5	1	1.474	blackcross.bmp	blackcross.bmp
179.95499999999998	4.4	5	1	1.429	blackcross.bmp	blackcross.bmp
184.363	4.8	4	1	1.039	vood.bmp	shase.bmp
189.173	4.8	3	0	0.813	glutch.bmp	nuch.bmp
193.98200000000003	4.8	4	1	1.088	plange.bmp	jase.bmp
198.79199999999997	4.8	5	1	1.748	blackcross.bmp	blackcross.bmp
203.601	4.0	6	1	1.354	c.bmp	u.bmp
207.60899999999998	4.4	2	0	2.506	slange.bmp	prange.bmp
212.01799999999997	4.0	1	0	1.683	vearn.bmp	glearn.bmp
216.026	4.0	2	0	1.591	zalve.bmp	walve.bmp
220.034	4.0	6	1	1.194	j.bmp	b.bmp
224.041	4.0	4	0	n/a	sharf.bmp	twove.bmp
228.04899999999998	4.0	3	0	0.782	chelm.bmp	swealm.bmp
232.05699999999996	4.0	5	1	1.509	blackcross.bmp	blackcross.bmp
236.065	4.0	5	1	1.744	blackcross.bmp	blackcross.bmp
240.07299999999998	4.4	2	1	1.344	plown.bmp	rown.bmp
244.48199999999997	4.4	5	1	1.801	blackcross.bmp	blackcross.bmp
248.89	4.4	5	1	1.477	blackcross.bmp	blackcross.bmp
253.29899999999998	4.4	2	1	1.529	glead.bmp	jead.bmp
257.70799999999997	4.4	3	1	1.424	shrune.bmp	hoon.bmp
262.11699999999996	4.4	3	0	1.042	pript.bmp	shrypt.bmp
266.525	4.4	6	1	1.626	g.bmp	h.bmp
270.93399999999997	4.4	4	1	0.906	splour.bmp	morth.bmp
275.34299999999996	4.4	5	1	1.41	blackcross.bmp	blackcross.bmp
279.751	4.4	4	1	1.142	learth.bmp	plost.bmp
284.15999999999997	4.8	4	0	n/a	neaf.bmp	shrease.bmp
288.969	4.8	4	1	0.902	scose.bmp	brost.bmp
293.779	4.8	1	0	0.728	plipt.bmp	bipt.bmp
298.58799999999997	4.8	6	0	1.152	o.bmp	p.bmp
303.39799999999997	4.8	5	1	1.769	blackcross.bmp	blackcross.bmp
308.207	4.8	4	1	1.155	spouth.bmp	zull.bmp
313.017	4.0	4	1	0.97	drose.bmp	crange.bmp
317.025	4.0	1	1	1.116	swault.bmp	lault.bmp
321.03299999999996	4.0	3	0	0.999	derb.bmp	shurb.bmp
325.03999999999996	4.0	3	0	n/a	nerge.bmp	yurge.bmp
329.048	4.4	3	1	1.823	yeal.bmp	sheel.bmp
333.457	4.4	4	0	n/a	glough.bmp	vown.bmp
337.866	4.4	1	0	0.991	twide.bmp	stide.bmp
342.274	4.4	6	0	1.183	c.bmp	d.bmp
346.683	4.8	1	1	1.702	preash.bmp	sleash.bmp
351.493	4.8	6	1	1.546	k.bmp	t.bmp
356.30199999999996	4.8	2	1	1.073	zow.bmp	shrow.bmp
361.11199999999997	4.8	4	1	1.115	vead.bmp	slood.bmp
365.921	4.8	5	1	1.744	blackcross.bmp	blackcross.bmp
