onset	duration	trial_type	accuracy	response_time	A_stim	B_stim
0.0	4.8	6	1	0.981	i.bmp	r.bmp
4.8430000000000035	4.8	3	1	1.002	nuss.bmp	zus.bmp
9.669000000000004	4.4	3	0	1.244	slearn.bmp	zurn.bmp
14.112000000000002	4.0	3	1	1.278	plirk.bmp	swerk.bmp
18.154000000000003	4.0	3	1	1.14	pault.bmp	zalt.bmp
22.179000000000002	4.4	6	1	1.128	a.bmp	b.bmp
26.620999999999995	4.0	6	1	1.057	e.bmp	f.bmp
30.662999999999997	4.0	4	0	1.067	kearth.bmp	geath.bmp
34.70400000000001	4.8	4	1	1.238	preath.bmp	shworth.bmp
39.548	4.0	1	1	1.033	treal.bmp	cheal.bmp
43.57300000000001	4.8	5	1	1.115	blackcross.bmp	blackcross.bmp
48.400000000000006	4.4	6	1	1.002	w.bmp	e.bmp
52.842	4.4	2	0	1.167	crove.bmp	swove.bmp
57.268	4.4	3	1	1.123	dite.bmp	vight.bmp
61.693	4.0	2	1	1.105	creath.bmp	steath.bmp
65.735	4.0	3	1	1.028	kreens.bmp	speans.bmp
69.76	4.0	5	1	1.406	blackcross.bmp	blackcross.bmp
73.785	4.0	5	1	1.097	blackcross.bmp	blackcross.bmp
77.81	4.4	5	1	1.119	blackcross.bmp	blackcross.bmp
82.252	4.4	4	0	1.191	pread.bmp	slear.bmp
86.694	4.4	3	0	1.128	mide.bmp	jied.bmp
91.13700000000001	4.8	6	1	0.914	z.bmp	g.bmp
95.96400000000001	4.8	3	1	1.185	mense.bmp	shence.bmp
100.807	4.4	2	0	0.98	snull.bmp	chull.bmp
105.24900000000001	4.0	1	1	1.036	zite.bmp	pite.bmp
109.27400000000002	4.8	1	1	1.197	plapse.bmp	dapse.bmp
114.10100000000001	4.0	1	1	0.991	slutch.bmp	putch.bmp
118.12599999999999	4.0	5	1	0.962	blackcross.bmp	blackcross.bmp
122.151	4.0	5	1	1.035	blackcross.bmp	blackcross.bmp
126.176	4.0	5	1	1.108	blackcross.bmp	blackcross.bmp
130.21699999999998	4.8	2	1	1.089	nouth.bmp	scouth.bmp
135.04399999999998	4.4	6	0	0.925	y.bmp	o.bmp
139.486	4.8	3	1	1.109	splirt.bmp	furt.bmp
144.32999999999998	4.0	6	1	1.014	v.bmp	w.bmp
148.35500000000002	4.8	5	1	1.015	blackcross.bmp	blackcross.bmp
153.18099999999998	4.8	3	1	1.127	durf.bmp	merf.bmp
158.00799999999998	4.4	1	1	1.002	punge.bmp	crunge.bmp
162.433	4.8	5	1	1.346	blackcross.bmp	blackcross.bmp
167.26	4.8	5	1	1.081	blackcross.bmp	blackcross.bmp
172.087	4.8	5	1	1.308	blackcross.bmp	blackcross.bmp
176.913	4.0	5	1	1.11	blackcross.bmp	blackcross.bmp
180.938	4.8	5	1	1.384	blackcross.bmp	blackcross.bmp
185.765	4.0	2	1	1.213	twear.bmp	zear.bmp
189.80599999999998	4.4	1	1	1.057	pritz.bmp	vitz.bmp
194.24900000000002	4.0	2	1	1.014	spomb.bmp	clomb.bmp
198.291	4.8	1	1	1.195	snerge.bmp	gerge.bmp
203.11700000000002	4.8	5	1	0.978	blackcross.bmp	blackcross.bmp
207.94400000000002	4.4	6	1	1.055	v.bmp	m.bmp
212.38600000000002	4.8	4	1	1.08	shwarp.bmp	larm.bmp
217.22899999999998	4.0	2	0	1.056	larp.bmp	swarp.bmp
221.25399999999996	4.8	6	1	1.092	k.bmp	l.bmp
226.098	4.0	4	1	0.989	sull.bmp	trow.bmp
230.139	4.4	3	1	1.008	rith.bmp	nyth.bmp
234.565	4.4	4	1	1.124	palve.bmp	smove.bmp
239.00799999999998	4.0	2	0	1.075	shwarm.bmp	varm.bmp
243.04899999999998	4.0	4	1	1.173	zarp.bmp	twarm.bmp
247.074	4.8	5	1	1.108	blackcross.bmp	blackcross.bmp
251.91699999999997	4.8	4	0	1.14	glown.bmp	stomb.bmp
256.74399999999997	4.0	5	1	1.065	blackcross.bmp	blackcross.bmp
260.786	4.4	2	0	0.875	nearth.bmp	fearth.bmp
265.228	4.4	1	0	1.142	flirk.bmp	slirk.bmp
269.671	4.8	3	1	0.986	poat.bmp	wote.bmp
274.497	4.4	4	1	0.891	smow.bmp	vomb.bmp
278.923	4.4	5	1	1.133	blackcross.bmp	blackcross.bmp
283.365	4.0	3	1	0.992	twapse.bmp	praps.bmp
287.39	4.4	5	1	1.423	blackcross.bmp	blackcross.bmp
291.83299999999997	4.8	2	1	1.109	vose.bmp	plose.bmp
296.659	4.0	6	1	1.171	y.bmp	z.bmp
300.70099999999996	4.4	2	0	1.189	sworth.bmp	horth.bmp
305.127	4.4	5	1	1.124	blackcross.bmp	blackcross.bmp
309.56899999999996	4.8	4	0	1.082	plear.bmp	zour.bmp
314.413	4.4	2	0	1.179	frood.bmp	plood.bmp
318.85499999999996	4.4	1	1	1.122	sprune.bmp	yune.bmp
323.281	4.0	6	1	1.014	h.bmp	p.bmp
327.322	4.8	1	1	1.039	sterb.bmp	cherb.bmp
332.166	4.0	3	1	1.069	britz.bmp	swits.bmp
336.191	4.4	5	1	1.208	blackcross.bmp	blackcross.bmp
340.633	4.0	2	0	1.723	shrase.bmp	flase.bmp
344.658	4.0	1	0	1.026	brith.bmp	spith.bmp
348.683	4.8	5	1	1.109	blackcross.bmp	blackcross.bmp
353.51	4.4	5	1	1.075	blackcross.bmp	blackcross.bmp
357.952	4.8	1	1	1.101	yoat.bmp	zoat.bmp
362.779	4.8	2	0	1.077	grost.bmp	nost.bmp
367.60499999999996	5.2	5	0	n/a	blackcross.bmp	blackcross.bmp
