onset	duration	trial_type	accuracy	response_time	A_stim	B_stim
0.0	4.8	6	0	n/a	a.bmp	s.bmp
4.826999999999998	4.8	3	0	n/a	fall.bmp	crawl.bmp
9.653999999999996	4.4	3	1	0.882	leap.bmp	sweep.bmp
14.096000000000004	4.0	3	1	0.727	tense.bmp	fence.bmp
18.138000000000005	4.0	3	1	0.761	soup.bmp	loop.bmp
22.16300000000001	4.4	6	1	0.912	j.bmp	b.bmp
26.587999999999994	4.0	6	1	0.842	h.bmp	p.bmp
30.613	4.0	4	0	n/a	pool.bmp	tooth.bmp
34.655	4.8	4	0	n/a	both.bmp	stroke.bmp
39.49800000000002	4.0	1	1	0.847	quart.bmp	wart.bmp
43.523000000000025	4.8	5	0	n/a	blackcross.bmp	blackcross.bmp
48.35000000000002	4.4	6	1	0.195	a.bmp	b.bmp
52.79200000000003	4.4	2	1	0.875	pint.bmp	hint.bmp
57.235000000000014	4.4	3	0	0.547	wheel.bmp	deal.bmp
61.67700000000002	4.0	2	0	0.577	smooth.bmp	tooth.bmp
65.702	4.0	3	1	1.122	stool.bmp	rule.bmp
69.72700000000003	4.0	5	0	1.13	blackcross.bmp	blackcross.bmp
73.75200000000001	4.0	5	0	0.101	blackcross.bmp	blackcross.bmp
77.77699999999999	4.4	5	1	1.048	blackcross.bmp	blackcross.bmp
82.202	4.4	4	0	0.144	flight.bmp	threat.bmp
86.62799999999999	4.4	3	0	n/a	bluff.bmp	tough.bmp
91.05400000000003	4.8	6	0	0.86	i.bmp	r.bmp
95.89699999999999	4.8	3	1	0.763	halt.bmp	fault.bmp
100.72399999999999	4.4	2	0	3.358	dull.bmp	bull.bmp
105.166	4.0	1	0	n/a	brow.bmp	cow.bmp
109.20800000000003	4.8	1	0	n/a	goat.bmp	float.bmp
114.05099999999999	4.0	1	1	0.841	glide.bmp	bride.bmp
118.07600000000002	4.0	5	0	n/a	blackcross.bmp	blackcross.bmp
122.101	4.0	5	0	n/a	blackcross.bmp	blackcross.bmp
126.12600000000003	4.0	5	0	0.271	blackcross.bmp	blackcross.bmp
130.151	4.8	2	0	0.447	plead.bmp	spread.bmp
134.97700000000003	4.4	6	1	0.56	t.bmp	u.bmp
139.42000000000002	4.8	3	0	n/a	roast.bmp	ghost.bmp
144.247	4.0	6	1	1.823	y.bmp	z.bmp
148.27100000000002	4.8	5	0	n/a	blackcross.bmp	blackcross.bmp
153.115	4.8	3	1	0.701	odd.bmp	rod.bmp
157.95800000000003	4.4	1	1	2.517	spoon.bmp	noon.bmp
162.38400000000001	4.8	5	1	0.386	blackcross.bmp	blackcross.bmp
167.20999999999998	4.8	5	1	2.609	blackcross.bmp	blackcross.bmp
172.03700000000003	4.8	5	1	2.694	blackcross.bmp	blackcross.bmp
176.863	4.0	5	1	1.402	blackcross.bmp	blackcross.bmp
180.88800000000003	4.8	5	1	1.359	blackcross.bmp	blackcross.bmp
185.73200000000003	4.0	2	0	2.372	breath.bmp	wreath.bmp
189.77300000000002	4.4	1	1	0.745	neat.bmp	wheat.bmp
194.216	4.0	2	0	1.048	mouth.bmp	youth.bmp
198.257	4.8	1	1	1.363	toss.bmp	moss.bmp
203.084	4.8	5	0	n/a	blackcross.bmp	blackcross.bmp
207.911	4.4	6	1	0.584	g.bmp	h.bmp
212.336	4.8	4	0	1.345	rule.bmp	blur.bmp
217.163	4.0	2	0	0.95	tomb.bmp	comb.bmp
221.188	4.8	6	0	n/a	r.bmp	s.bmp
226.014	4.0	4	0	n/a	june.bmp	loop.bmp
230.039	4.4	3	1	0.679	warm.bmp	form.bmp
234.46500000000003	4.4	4	0	1.149	rum.bmp	touch.bmp
238.89100000000002	4.0	2	0	0.738	gross.bmp	moss.bmp
242.916	4.0	4	0	n/a	glow.bmp	stove.bmp
246.94100000000003	4.8	5	1	1.445	blackcross.bmp	blackcross.bmp
251.767	4.8	4	0	0.768	wheel.bmp	sneak.bmp
256.594	4.0	5	0	n/a	blackcross.bmp	blackcross.bmp
260.619	4.4	2	0	n/a	cow.bmp	glow.bmp
265.044	4.4	1	1	0.826	pile.bmp	mile.bmp
269.487	4.8	3	1	0.308	cheek.bmp	sneak.bmp
274.313	4.4	4	0	1.421	youth.bmp	hint.bmp
278.73900000000003	4.4	5	0	n/a	blackcross.bmp	blackcross.bmp
283.165	4.0	3	0	n/a	thief.bmp	beef.bmp
287.19	4.4	5	1	2.461	blackcross.bmp	blackcross.bmp
291.616	4.8	2	0	3.012	swarm.bmp	harm.bmp
296.442	4.0	6	1	0.277	l.bmp	d.bmp
300.46700000000004	4.4	2	1	0.325	both.bmp	cloth.bmp
304.893	4.4	5	1	1.555	blackcross.bmp	blackcross.bmp
309.319	4.8	4	0	n/a	cream.bmp	swarm.bmp
314.14500000000004	4.4	2	0	n/a	ford.bmp	word.bmp
318.57099999999997	4.4	1	0	n/a	vase.bmp	chase.bmp
322.997	4.0	6	0	n/a	f.bmp	n.bmp
327.022	4.8	1	1	0.667	flood.bmp	blood.bmp
331.848	4.0	3	0	0.079	quart.bmp	port.bmp
335.873	4.4	5	1	1.925	blackcross.bmp	blackcross.bmp
340.29900000000004	4.0	2	0	1.348	swap.bmp	gap.bmp
344.34099999999995	4.0	1	1	1.65	frost.bmp	cost.bmp
348.36499999999995	4.8	5	0	n/a	blackcross.bmp	blackcross.bmp
353.19200000000006	4.4	5	1	2.896	blackcross.bmp	blackcross.bmp
357.618	4.8	1	0	n/a	harm.bmp	farm.bmp
362.46099999999996	4.8	2	0	1.818	scratch.bmp	watch.bmp
367.28799999999995	5.2	5	0	n/a	blackcross.bmp	blackcross.bmp
