onset	duration	trial_type	accuracy	response_time	A_stim	B_stim
0.0	4.8	6	1	0.881	i.bmp	r.bmp
4.826999999999998	4.8	3	0	1.394	nuss.bmp	zus.bmp
9.653999999999996	4.4	3	1	0.788	slearn.bmp	zurn.bmp
14.079000000000008	4.0	3	1	1.453	plirk.bmp	swerk.bmp
18.120999999999995	4.0	3	1	0.912	pault.bmp	zalt.bmp
22.146	4.4	6	0	0.954	a.bmp	b.bmp
26.572000000000003	4.0	6	0	0.792	e.bmp	f.bmp
30.614000000000004	4.0	4	0	1.109	kearth.bmp	geath.bmp
34.655	4.8	4	1	0.897	preath.bmp	shworth.bmp
39.498000000000005	4.0	1	1	1.241	treal.bmp	cheal.bmp
43.522999999999996	4.8	5	1	1.317	blackcross.bmp	blackcross.bmp
48.35000000000001	4.4	6	0	0.951	w.bmp	e.bmp
52.793000000000006	4.4	2	0	1.75	crove.bmp	swove.bmp
57.218	4.4	3	1	2.177	dite.bmp	vight.bmp
61.67699999999999	4.0	2	1	1.445	creath.bmp	steath.bmp
65.719	4.0	3	1	1.336	kreens.bmp	speans.bmp
69.744	4.0	5	1	1.507	blackcross.bmp	blackcross.bmp
73.769	4.0	5	1	1.53	blackcross.bmp	blackcross.bmp
77.79400000000001	4.4	5	1	1.244	blackcross.bmp	blackcross.bmp
82.23599999999999	4.4	4	0	1.97	pread.bmp	slear.bmp
86.679	4.4	3	0	1.257	mide.bmp	jied.bmp
91.10499999999999	4.8	6	1	0.887	z.bmp	g.bmp
95.94800000000001	4.8	3	0	1.714	mense.bmp	shence.bmp
100.791	4.4	2	0	1.445	snull.bmp	chull.bmp
105.23400000000001	4.0	1	1	1.193	zite.bmp	pite.bmp
109.275	4.8	1	0	1.158	plapse.bmp	dapse.bmp
114.119	4.0	1	1	1.443	slutch.bmp	putch.bmp
118.144	4.0	5	1	1.304	blackcross.bmp	blackcross.bmp
122.16900000000001	4.0	5	1	1.294	blackcross.bmp	blackcross.bmp
126.19399999999999	4.0	5	1	1.383	blackcross.bmp	blackcross.bmp
130.252	4.8	2	1	1.435	nouth.bmp	scouth.bmp
135.079	4.4	6	0	0.811	y.bmp	o.bmp
139.52100000000002	4.8	3	0	1.463	splirt.bmp	furt.bmp
144.348	4.0	6	1	1.015	v.bmp	w.bmp
148.373	4.8	5	1	1.418	blackcross.bmp	blackcross.bmp
153.216	4.8	3	1	0.815	durf.bmp	merf.bmp
158.059	4.4	1	1	1.268	punge.bmp	crunge.bmp
162.485	4.8	5	1	1.227	blackcross.bmp	blackcross.bmp
167.312	4.8	5	1	1.421	blackcross.bmp	blackcross.bmp
172.138	4.8	5	1	1.464	blackcross.bmp	blackcross.bmp
176.965	4.0	5	1	1.521	blackcross.bmp	blackcross.bmp
180.99	4.8	5	1	1.483	blackcross.bmp	blackcross.bmp
185.833	4.0	2	1	1.075	twear.bmp	zear.bmp
189.87500000000003	4.4	1	1	1.142	pritz.bmp	vitz.bmp
194.31699999999998	4.0	2	1	1.634	spomb.bmp	clomb.bmp
198.359	4.8	1	0	1.558	snerge.bmp	gerge.bmp
203.18499999999997	4.8	5	1	1.399	blackcross.bmp	blackcross.bmp
208.01200000000003	4.4	6	1	0.783	v.bmp	m.bmp
212.455	4.8	4	1	1.266	shwarp.bmp	larm.bmp
217.29799999999997	4.0	2	1	1.536	larp.bmp	swarp.bmp
221.323	4.8	6	1	0.905	k.bmp	l.bmp
226.18300000000002	4.0	4	1	1.12	sull.bmp	trow.bmp
230.22400000000002	4.4	3	1	0.887	rith.bmp	nyth.bmp
234.684	4.4	4	1	1.585	palve.bmp	smove.bmp
239.126	4.0	2	0	1.54	shwarm.bmp	varm.bmp
243.16799999999998	4.0	4	1	1.704	zarp.bmp	twarm.bmp
247.193	4.8	5	1	1.324	blackcross.bmp	blackcross.bmp
252.03600000000003	4.8	4	1	1.552	glown.bmp	stomb.bmp
256.86300000000006	4.0	5	1	1.169	blackcross.bmp	blackcross.bmp
260.92100000000005	4.4	2	1	1.448	nearth.bmp	fearth.bmp
265.36300000000006	4.4	1	1	0.816	flirk.bmp	slirk.bmp
269.80600000000004	4.8	3	1	1.517	poat.bmp	wote.bmp
274.63300000000004	4.4	4	1	1.797	smow.bmp	vomb.bmp
279.058	4.4	5	1	1.244	blackcross.bmp	blackcross.bmp
283.501	4.0	3	0	1.371	twapse.bmp	praps.bmp
287.52599999999995	4.4	5	1	1.132	blackcross.bmp	blackcross.bmp
291.96799999999996	4.8	2	0	1.08	vose.bmp	plose.bmp
296.79499999999996	4.0	6	1	1.096	y.bmp	z.bmp
300.836	4.4	2	0	1.141	sworth.bmp	horth.bmp
305.26200000000006	4.4	5	1	1.373	blackcross.bmp	blackcross.bmp
309.70500000000004	4.8	4	0	1.296	plear.bmp	zour.bmp
314.548	4.4	2	0	1.154	frood.bmp	plood.bmp
318.991	4.4	1	0	1.692	sprune.bmp	yune.bmp
323.41600000000005	4.0	6	1	0.591	h.bmp	p.bmp
327.45799999999997	4.8	1	1	1.396	sterb.bmp	cherb.bmp
332.30100000000004	4.0	3	0	1.086	britz.bmp	swits.bmp
336.326	4.4	5	1	1.328	blackcross.bmp	blackcross.bmp
340.769	4.0	2	0	1.424	shrase.bmp	flase.bmp
344.80999999999995	4.0	1	0	0.886	brith.bmp	spith.bmp
348.83500000000004	4.8	5	1	1.198	blackcross.bmp	blackcross.bmp
353.66200000000003	4.4	5	1	1.284	blackcross.bmp	blackcross.bmp
358.10400000000004	4.8	1	1	1.751	yoat.bmp	zoat.bmp
362.948	4.8	2	0	1.269	grost.bmp	nost.bmp
367.774	5.2	5	0	n/a	blackcross.bmp	blackcross.bmp
