onset	duration	trial_type	accuracy	response_time	A_stim	B_stim
0.0	4.0	2	0	0.718	slour.bmp	vour.bmp
4.018999999999998	4.0	5	1	1.073	blackcross.bmp	blackcross.bmp
8.037999999999997	4.0	6	1	0.649	a.bmp	s.bmp
12.057000000000002	4.0	3	0	0.398	reash.bmp	sliche.bmp
16.076	4.4	5	0	1.08	blackcross.bmp	blackcross.bmp
20.496000000000002	4.4	6	1	0.438	i.bmp	j.bmp
24.916000000000004	4.4	1	0	0.294	treens.bmp	smeens.bmp
29.323	4.4	1	1	0.515	vuss.bmp	duss.bmp
33.742	4.8	6	1	0.536	f.bmp	n.bmp
38.562000000000005	4.8	1	0	0.37	zurf.bmp	hurf.bmp
43.36899999999999	4.8	5	1	0.89	blackcross.bmp	blackcross.bmp
48.177	4.8	1	1	0.383	crelm.bmp	melm.bmp
52.984	4.0	2	0	0.451	clease.bmp	prease.bmp
57.002	4.0	1	1	0.856	twirt.bmp	stirt.bmp
61.020999999999994	4.4	3	1	0.345	slurl.bmp	dirl.bmp
65.441	4.4	4	1	0.498	blease.bmp	seaf.bmp
69.86099999999999	4.4	5	0	0.964	blackcross.bmp	blackcross.bmp
74.281	4.8	5	0	0.765	blackcross.bmp	blackcross.bmp
79.088	4.8	4	1	0.71	quarf.bmp	ralve.bmp
83.89499999999998	4.8	6	1	0.671	m.bmp	n.bmp
88.702	4.8	1	1	0.37	clurl.bmp	turl.bmp
93.50899999999999	4.8	6	1	0.393	r.bmp	s.bmp
98.316	4.0	5	1	1.304	blackcross.bmp	blackcross.bmp
102.33499999999998	4.0	3	0	0.663	brunge.bmp	skonge.bmp
106.35399999999998	4.0	4	0	0.452	strough.bmp	wouth.bmp
110.37299999999999	4.4	6	1	0.572	l.bmp	d.bmp
114.79299999999998	4.4	5	0	1.168	blackcross.bmp	blackcross.bmp
119.19899999999998	4.4	5	0	0.867	blackcross.bmp	blackcross.bmp
123.619	4.4	5	0	0.95	blackcross.bmp	blackcross.bmp
128.039	4.8	5	0	0.3	blackcross.bmp	blackcross.bmp
132.846	4.8	1	1	0.393	crense.bmp	nense.bmp
137.653	4.8	5	1	0.555	blackcross.bmp	blackcross.bmp
142.45999999999998	4.0	2	0	0.321	twough.bmp	drough.bmp
146.47899999999998	4.0	2	0	0.401	twarf.bmp	starf.bmp
150.498	4.0	5	1	0.65	blackcross.bmp	blackcross.bmp
154.531	4.0	2	0	0.412	meaf.bmp	teaf.bmp
158.54999999999998	4.0	6	1	0.405	t.bmp	u.bmp
162.569	4.4	5	1	0.624	blackcross.bmp	blackcross.bmp
166.975	4.4	5	1	0.118	blackcross.bmp	blackcross.bmp
171.39499999999998	4.4	5	1	0.436	blackcross.bmp	blackcross.bmp
175.815	4.4	5	1	1.207	blackcross.bmp	blackcross.bmp
180.221	4.4	5	1	0.277	blackcross.bmp	blackcross.bmp
184.641	4.8	4	0	0.596	vood.bmp	shase.bmp
189.46099999999998	4.8	3	0	0.432	glutch.bmp	nuch.bmp
194.269	4.8	4	1	0.423	plange.bmp	jase.bmp
199.075	4.8	5	0	0.791	blackcross.bmp	blackcross.bmp
203.88299999999998	4.0	6	0	0.266	c.bmp	u.bmp
207.90099999999998	4.4	2	0	0.755	slange.bmp	prange.bmp
212.321	4.0	1	1	0.609	vearn.bmp	glearn.bmp
216.34	4.0	2	0	0.675	zalve.bmp	walve.bmp
220.359	4.0	6	1	0.577	j.bmp	b.bmp
224.379	4.0	4	0	0.549	sharf.bmp	twove.bmp
228.398	4.0	3	1	0.607	chelm.bmp	swealm.bmp
232.417	4.0	5	0	0.993	blackcross.bmp	blackcross.bmp
236.42299999999997	4.0	5	0	2.138	blackcross.bmp	blackcross.bmp
240.44199999999998	4.4	2	1	0.98	plown.bmp	rown.bmp
244.84799999999998	4.4	5	1	0.737	blackcross.bmp	blackcross.bmp
249.268	4.4	5	1	0.736	blackcross.bmp	blackcross.bmp
253.68800000000002	4.4	2	0	0.292	glead.bmp	jead.bmp
258.094	4.4	3	0	0.62	shrune.bmp	hoon.bmp
262.514	4.4	3	0	0.729	pript.bmp	shrypt.bmp
266.934	4.4	6	1	0.707	g.bmp	h.bmp
271.341	4.4	4	1	0.59	splour.bmp	morth.bmp
275.76000000000005	4.4	5	0	0.783	blackcross.bmp	blackcross.bmp
280.16700000000003	4.4	4	1	0.911	learth.bmp	plost.bmp
284.586	4.8	4	1	0.577	neaf.bmp	shrease.bmp
289.406	4.8	4	0	0.381	scose.bmp	brost.bmp
294.214	4.8	1	1	0.415	plipt.bmp	bipt.bmp
299.021	4.8	6	1	0.392	o.bmp	p.bmp
303.827	4.8	5	1	1.626	blackcross.bmp	blackcross.bmp
308.634	4.8	4	1	0.463	spouth.bmp	zull.bmp
313.442	4.0	4	0	0.591	drose.bmp	crange.bmp
317.46000000000004	4.0	1	0	0.312	swault.bmp	lault.bmp
321.47900000000004	4.0	3	0	0.471	derb.bmp	shurb.bmp
325.499	4.0	3	0	0.478	nerge.bmp	yurge.bmp
329.51800000000003	4.4	3	1	0.433	yeal.bmp	sheel.bmp
333.925	4.4	4	1	0.58	glough.bmp	vown.bmp
338.344	4.4	1	0	0.73	twide.bmp	stide.bmp
342.764	4.4	6	0	0.673	c.bmp	d.bmp
347.171	4.8	1	1	0.514	preash.bmp	sleash.bmp
351.97700000000003	4.8	6	0	0.548	k.bmp	t.bmp
356.785	4.8	2	1	0.378	zow.bmp	shrow.bmp
361.60400000000004	4.8	4	0	0.48	vead.bmp	slood.bmp
366.411	4.8	5	0	n/a	blackcross.bmp	blackcross.bmp
