onset	duration	trial_type	accuracy	response_time	A_stim	B_stim
0.0	4.8	6	1	0.997	i.bmp	r.bmp
4.8260000000000005	4.8	3	1	1.232	nuss.bmp	zus.bmp
9.652999999999999	4.4	3	1	1.107	slearn.bmp	zurn.bmp
14.079	4.0	3	1	0.702	plirk.bmp	swerk.bmp
18.104000000000006	4.0	3	1	0.704	pault.bmp	zalt.bmp
22.128999999999998	4.4	6	1	2.173	a.bmp	b.bmp
26.553999999999995	4.0	6	1	0.719	e.bmp	f.bmp
30.579	4.0	4	1	2.281	kearth.bmp	geath.bmp
34.604000000000006	4.8	4	1	1.602	preath.bmp	shworth.bmp
39.431000000000004	4.0	1	1	1.071	treal.bmp	cheal.bmp
43.455999999999996	4.8	5	1	1.453	blackcross.bmp	blackcross.bmp
48.282000000000004	4.4	6	1	0.981	w.bmp	e.bmp
52.708000000000006	4.4	2	0	0.984	crove.bmp	swove.bmp
57.13400000000001	4.4	3	1	2.26	dite.bmp	vight.bmp
61.559999999999995	4.0	2	0	0.894	creath.bmp	steath.bmp
65.584	4.0	3	1	0.924	kreens.bmp	speans.bmp
69.60900000000001	4.0	5	1	1.697	blackcross.bmp	blackcross.bmp
73.63400000000001	4.0	5	1	1.773	blackcross.bmp	blackcross.bmp
77.65899999999999	4.4	5	1	1.597	blackcross.bmp	blackcross.bmp
82.08500000000001	4.4	4	0	n/a	pread.bmp	slear.bmp
86.511	4.4	3	1	1.292	mide.bmp	jied.bmp
90.936	4.8	6	1	2.18	z.bmp	g.bmp
95.763	4.8	3	1	0.626	mense.bmp	shence.bmp
100.59	4.4	2	0	0.733	snull.bmp	chull.bmp
105.01499999999999	4.0	1	1	0.79	zite.bmp	pite.bmp
109.03999999999999	4.8	1	1	0.73	plapse.bmp	dapse.bmp
113.86699999999999	4.0	1	1	2.504	slutch.bmp	putch.bmp
117.892	4.0	5	1	1.158	blackcross.bmp	blackcross.bmp
121.917	4.0	5	1	1.109	blackcross.bmp	blackcross.bmp
125.94200000000001	4.0	5	1	1.403	blackcross.bmp	blackcross.bmp
129.96699999999998	4.8	2	0	0.578	nouth.bmp	scouth.bmp
134.793	4.4	6	1	1.51	y.bmp	o.bmp
139.219	4.8	3	1	1.286	splirt.bmp	furt.bmp
144.046	4.0	6	1	2.61	v.bmp	w.bmp
148.07	4.8	5	1	1.097	blackcross.bmp	blackcross.bmp
152.897	4.8	3	1	0.656	durf.bmp	merf.bmp
157.724	4.4	1	1	0.636	punge.bmp	crunge.bmp
162.149	4.8	5	1	1.066	blackcross.bmp	blackcross.bmp
166.976	4.8	5	1	1.438	blackcross.bmp	blackcross.bmp
171.802	4.8	5	1	2.092	blackcross.bmp	blackcross.bmp
176.629	4.0	5	1	1.078	blackcross.bmp	blackcross.bmp
180.654	4.8	5	1	1.594	blackcross.bmp	blackcross.bmp
185.481	4.0	2	0	0.584	twear.bmp	zear.bmp
189.505	4.4	1	1	0.601	pritz.bmp	vitz.bmp
193.93099999999998	4.0	2	0	1.413	spomb.bmp	clomb.bmp
197.956	4.8	1	1	0.485	snerge.bmp	gerge.bmp
202.78300000000002	4.8	5	1	1.203	blackcross.bmp	blackcross.bmp
207.60899999999998	4.4	6	1	2.493	v.bmp	m.bmp
212.03499999999997	4.8	4	0	1.284	shwarp.bmp	larm.bmp
216.86199999999997	4.0	2	0	2.166	larp.bmp	swarp.bmp
220.887	4.8	6	1	1.766	k.bmp	l.bmp
225.71300000000002	4.0	4	1	1.09	sull.bmp	trow.bmp
229.738	4.4	3	1	1.23	rith.bmp	nyth.bmp
234.164	4.4	4	1	1.386	palve.bmp	smove.bmp
238.58999999999997	4.0	2	0	1.682	shwarm.bmp	varm.bmp
242.615	4.0	4	1	1.638	zarp.bmp	twarm.bmp
246.639	4.8	5	1	1.072	blackcross.bmp	blackcross.bmp
251.466	4.8	4	1	0.917	glown.bmp	stomb.bmp
256.293	4.0	5	1	2.363	blackcross.bmp	blackcross.bmp
260.318	4.4	2	0	0.719	nearth.bmp	fearth.bmp
264.743	4.4	1	1	0.97	flirk.bmp	slirk.bmp
269.169	4.8	3	1	1.226	poat.bmp	wote.bmp
273.996	4.4	4	1	1.726	smow.bmp	vomb.bmp
278.421	4.4	5	1	1.344	blackcross.bmp	blackcross.bmp
282.847	4.0	3	1	1.642	twapse.bmp	praps.bmp
286.872	4.4	5	1	1.567	blackcross.bmp	blackcross.bmp
291.298	4.8	2	0	0.645	vose.bmp	plose.bmp
296.12399999999997	4.0	6	1	0.779	y.bmp	z.bmp
300.149	4.4	2	0	1.414	sworth.bmp	horth.bmp
304.575	4.4	5	1	1.316	blackcross.bmp	blackcross.bmp
309.001	4.8	4	1	1.133	plear.bmp	zour.bmp
313.827	4.4	2	0	1.272	frood.bmp	plood.bmp
318.253	4.4	1	1	0.591	sprune.bmp	yune.bmp
322.679	4.0	6	1	0.856	h.bmp	p.bmp
326.704	4.8	1	1	0.865	sterb.bmp	cherb.bmp
331.53	4.0	3	1	0.841	britz.bmp	swits.bmp
335.555	4.4	5	1	1.176	blackcross.bmp	blackcross.bmp
339.981	4.0	2	0	1.236	shrase.bmp	flase.bmp
344.006	4.0	1	1	2.11	brith.bmp	spith.bmp
348.031	4.8	5	1	1.006	blackcross.bmp	blackcross.bmp
352.85699999999997	4.4	5	1	1.095	blackcross.bmp	blackcross.bmp
357.283	4.8	1	1	0.431	yoat.bmp	zoat.bmp
362.11	4.8	2	0	1.855	grost.bmp	nost.bmp
366.936	5.2	5	0	n/a	blackcross.bmp	blackcross.bmp
