onset	duration	trial_type	accuracy	response_time	A_stim	B_stim
0.0	4.0	2	1	2.162	slour.bmp	vour.bmp
4.007999999999996	4.0	5	1	1.696	blackcross.bmp	blackcross.bmp
8.015999999999998	4.0	6	1	0.794	a.bmp	s.bmp
12.022999999999996	4.0	3	1	2.36	reash.bmp	sliche.bmp
16.031	4.4	5	1	1.797	blackcross.bmp	blackcross.bmp
20.440000000000005	4.4	6	1	0.805	i.bmp	j.bmp
24.848999999999997	4.4	1	1	1.806	treens.bmp	smeens.bmp
29.256999999999998	4.4	1	1	1.35	vuss.bmp	duss.bmp
33.666000000000004	4.8	6	1	1.048	f.bmp	n.bmp
38.475	4.8	1	1	1.023	zurf.bmp	hurf.bmp
43.285000000000004	4.8	5	1	1.243	blackcross.bmp	blackcross.bmp
48.094	4.8	1	1	1.526	crelm.bmp	melm.bmp
52.904	4.0	2	0	1.007	clease.bmp	prease.bmp
56.912	4.0	1	1	0.998	twirt.bmp	stirt.bmp
60.919000000000004	4.4	3	1	1.221	slurl.bmp	dirl.bmp
65.328	4.4	4	1	1.21	blease.bmp	seaf.bmp
69.737	4.4	5	1	1.547	blackcross.bmp	blackcross.bmp
74.14500000000001	4.8	5	1	1.334	blackcross.bmp	blackcross.bmp
78.95499999999998	4.8	4	1	0.99	quarf.bmp	ralve.bmp
83.76399999999998	4.8	6	1	0.78	m.bmp	n.bmp
88.57399999999998	4.8	1	1	1.243	clurl.bmp	turl.bmp
93.38299999999998	4.8	6	1	0.712	r.bmp	s.bmp
98.19299999999998	4.0	5	1	1.462	blackcross.bmp	blackcross.bmp
102.201	4.0	3	0	1.22	brunge.bmp	skonge.bmp
106.208	4.0	4	0	1.457	strough.bmp	wouth.bmp
110.21599999999998	4.4	6	1	0.904	l.bmp	d.bmp
114.625	4.4	5	1	1.885	blackcross.bmp	blackcross.bmp
119.03399999999999	4.4	5	1	1.648	blackcross.bmp	blackcross.bmp
123.44199999999998	4.4	5	1	1.493	blackcross.bmp	blackcross.bmp
127.851	4.8	5	1	1.542	blackcross.bmp	blackcross.bmp
132.66	4.8	1	1	1.6	crense.bmp	nense.bmp
137.47	4.8	5	1	1.117	blackcross.bmp	blackcross.bmp
142.279	4.0	2	1	1.462	twough.bmp	drough.bmp
146.28699999999998	4.0	2	0	1.507	twarf.bmp	starf.bmp
150.295	4.0	5	1	1.961	blackcross.bmp	blackcross.bmp
154.303	4.0	2	0	1.157	meaf.bmp	teaf.bmp
158.31099999999998	4.0	6	1	0.763	t.bmp	u.bmp
162.319	4.4	5	1	1.033	blackcross.bmp	blackcross.bmp
166.727	4.4	5	1	1.635	blackcross.bmp	blackcross.bmp
171.136	4.4	5	1	1.19	blackcross.bmp	blackcross.bmp
175.545	4.4	5	1	1.16	blackcross.bmp	blackcross.bmp
179.953	4.4	5	1	1.195	blackcross.bmp	blackcross.bmp
184.362	4.8	4	1	1.085	vood.bmp	shase.bmp
189.171	4.8	3	0	2.188	glutch.bmp	nuch.bmp
193.981	4.8	4	1	1.187	plange.bmp	jase.bmp
198.79	4.8	5	1	0.31	blackcross.bmp	blackcross.bmp
203.6	4.0	6	1	0.85	c.bmp	u.bmp
207.60799999999998	4.4	2	1	0.901	slange.bmp	prange.bmp
212.016	4.0	1	1	1.76	vearn.bmp	glearn.bmp
216.02399999999997	4.0	2	0	1.007	zalve.bmp	walve.bmp
220.032	4.0	6	1	0.762	j.bmp	b.bmp
224.04	4.0	4	1	0.881	sharf.bmp	twove.bmp
228.04799999999997	4.0	3	1	1.106	chelm.bmp	swealm.bmp
232.056	4.0	5	1	1.769	blackcross.bmp	blackcross.bmp
236.06300000000002	4.0	5	1	1.48	blackcross.bmp	blackcross.bmp
240.071	4.4	2	0	1.518	plown.bmp	rown.bmp
244.48	4.4	5	1	1.425	blackcross.bmp	blackcross.bmp
248.88899999999998	4.4	5	1	1.265	blackcross.bmp	blackcross.bmp
253.297	4.4	2	0	0.931	glead.bmp	jead.bmp
257.706	4.4	3	1	1.272	shrune.bmp	hoon.bmp
262.115	4.4	3	0	1.386	pript.bmp	shrypt.bmp
266.523	4.4	6	1	0.937	g.bmp	h.bmp
270.932	4.4	4	1	1.143	splour.bmp	morth.bmp
275.341	4.4	5	1	1.534	blackcross.bmp	blackcross.bmp
279.749	4.4	4	1	1.272	learth.bmp	plost.bmp
284.158	4.8	4	1	1.049	neaf.bmp	shrease.bmp
288.96700000000004	4.8	4	1	1.078	scose.bmp	brost.bmp
293.77700000000004	4.8	1	1	1.306	plipt.bmp	bipt.bmp
298.586	4.8	6	1	0.744	o.bmp	p.bmp
303.396	4.8	5	1	1.157	blackcross.bmp	blackcross.bmp
308.20500000000004	4.8	4	1	0.935	spouth.bmp	zull.bmp
313.01500000000004	4.0	4	1	1.362	drose.bmp	crange.bmp
317.022	4.0	1	0	0.818	swault.bmp	lault.bmp
321.03000000000003	4.0	3	1	1.067	derb.bmp	shurb.bmp
325.038	4.0	3	1	0.853	nerge.bmp	yurge.bmp
329.046	4.4	3	1	1.458	yeal.bmp	sheel.bmp
333.45500000000004	4.4	4	1	1.009	glough.bmp	vown.bmp
337.863	4.4	1	1	0.851	twide.bmp	stide.bmp
342.272	4.4	6	1	0.797	c.bmp	d.bmp
346.68100000000004	4.8	1	1	1.252	preash.bmp	sleash.bmp
351.49	4.8	6	1	0.97	k.bmp	t.bmp
356.3	4.8	2	1	1.016	zow.bmp	shrow.bmp
361.10900000000004	4.8	4	1	0.998	vead.bmp	slood.bmp
365.91900000000004	4.8	5	1	1.308	blackcross.bmp	blackcross.bmp
