onset	duration	trial_type	accuracy	response_time	A_stim	B_stim
0.0	4.8	6	1	0.971	a.bmp	s.bmp
4.810000000000002	4.8	3	1	2.083	fall.bmp	crawl.bmp
9.619	4.4	3	1	0.92	leap.bmp	sweep.bmp
14.027999999999992	4.0	3	1	0.883	tense.bmp	fence.bmp
18.036	4.0	3	0	0.657	soup.bmp	loop.bmp
22.043999999999983	4.4	6	1	0.784	j.bmp	b.bmp
26.453000000000003	4.0	6	1	0.949	h.bmp	p.bmp
30.460999999999984	4.0	4	1	0.846	pool.bmp	tooth.bmp
34.468999999999994	4.8	4	1	0.532	both.bmp	stroke.bmp
39.27799999999999	4.0	1	1	0.885	quart.bmp	wart.bmp
43.286	4.8	5	1	1.425	blackcross.bmp	blackcross.bmp
48.096000000000004	4.4	6	1	0.763	a.bmp	b.bmp
52.50399999999999	4.4	2	0	1.107	pint.bmp	hint.bmp
56.91299999999998	4.4	3	1	1.651	wheel.bmp	deal.bmp
61.322	4.0	2	1	1.8	smooth.bmp	tooth.bmp
65.32999999999998	4.0	3	1	1.349	stool.bmp	rule.bmp
69.338	4.0	5	1	1.276	blackcross.bmp	blackcross.bmp
73.346	4.0	5	1	0.74	blackcross.bmp	blackcross.bmp
77.35399999999998	4.4	5	1	0.519	blackcross.bmp	blackcross.bmp
81.762	4.4	4	1	0.813	flight.bmp	threat.bmp
86.17099999999999	4.4	3	0	1.181	bluff.bmp	tough.bmp
90.57999999999998	4.8	6	1	1.007	i.bmp	r.bmp
95.38899999999998	4.8	3	1	1.03	halt.bmp	fault.bmp
100.19899999999998	4.4	2	1	1.245	dull.bmp	bull.bmp
104.608	4.0	1	1	0.923	brow.bmp	cow.bmp
108.61599999999999	4.8	1	0	1.091	goat.bmp	float.bmp
113.42499999999998	4.0	1	1	1.096	glide.bmp	bride.bmp
117.43299999999999	4.0	5	1	1.313	blackcross.bmp	blackcross.bmp
121.44099999999997	4.0	5	1	1.303	blackcross.bmp	blackcross.bmp
125.44900000000001	4.0	5	1	1.392	blackcross.bmp	blackcross.bmp
129.457	4.8	2	1	0.759	plead.bmp	spread.bmp
134.26600000000002	4.4	6	1	0.743	t.bmp	u.bmp
138.675	4.8	3	1	0.801	roast.bmp	ghost.bmp
143.485	4.0	6	1	0.833	y.bmp	z.bmp
147.493	4.8	5	1	1.324	blackcross.bmp	blackcross.bmp
152.30200000000002	4.8	3	1	1.116	odd.bmp	rod.bmp
157.11199999999997	4.4	1	1	0.878	spoon.bmp	noon.bmp
161.51999999999998	4.8	5	1	1.08	blackcross.bmp	blackcross.bmp
166.32999999999998	4.8	5	1	1.303	blackcross.bmp	blackcross.bmp
171.14	4.8	5	1	1.119	blackcross.bmp	blackcross.bmp
175.949	4.0	5	1	1.209	blackcross.bmp	blackcross.bmp
179.957	4.8	5	1	0.937	blackcross.bmp	blackcross.bmp
184.767	4.0	2	0	1.188	breath.bmp	wreath.bmp
188.77499999999998	4.4	1	1	0.967	neat.bmp	wheat.bmp
193.183	4.0	2	0	1.007	mouth.bmp	youth.bmp
197.19099999999997	4.8	1	1	1.139	toss.bmp	moss.bmp
202.00099999999998	4.8	5	1	1.149	blackcross.bmp	blackcross.bmp
206.81	4.4	6	1	0.557	g.bmp	h.bmp
211.219	4.8	4	1	1.073	rule.bmp	blur.bmp
216.029	4.0	2	0	0.919	tomb.bmp	comb.bmp
220.036	4.8	6	1	0.641	r.bmp	s.bmp
224.846	4.0	4	1	0.995	june.bmp	loop.bmp
228.85399999999998	4.4	3	1	0.691	warm.bmp	form.bmp
233.26299999999998	4.4	4	1	1.028	rum.bmp	touch.bmp
237.671	4.0	2	1	1.304	gross.bmp	moss.bmp
241.67899999999997	4.0	4	1	1.971	glow.bmp	stove.bmp
245.687	4.8	5	1	0.933	blackcross.bmp	blackcross.bmp
250.497	4.8	4	1	1.487	wheel.bmp	sneak.bmp
255.30599999999998	4.0	5	1	1.317	blackcross.bmp	blackcross.bmp
259.314	4.4	2	1	1.343	cow.bmp	glow.bmp
263.723	4.4	1	1	1.578	pile.bmp	mile.bmp
268.132	4.8	3	0	0.942	cheek.bmp	sneak.bmp
272.941	4.4	4	1	0.89	youth.bmp	hint.bmp
277.34999999999997	4.4	5	1	1.098	blackcross.bmp	blackcross.bmp
281.759	4.0	3	1	1.484	thief.bmp	beef.bmp
285.767	4.4	5	1	1.607	blackcross.bmp	blackcross.bmp
290.176	4.8	2	1	0.989	swarm.bmp	harm.bmp
294.985	4.0	6	1	0.799	l.bmp	d.bmp
298.993	4.4	2	0	1.125	both.bmp	cloth.bmp
303.402	4.4	5	1	1.655	blackcross.bmp	blackcross.bmp
307.811	4.8	4	1	0.835	cream.bmp	swarm.bmp
312.62	4.4	2	0	0.914	ford.bmp	word.bmp
317.029	4.4	1	1	1.016	vase.bmp	chase.bmp
321.438	4.0	6	1	0.598	f.bmp	n.bmp
325.445	4.8	1	1	1.172	flood.bmp	blood.bmp
330.255	4.0	3	1	1.193	quart.bmp	port.bmp
334.263	4.4	5	1	1.153	blackcross.bmp	blackcross.bmp
338.67199999999997	4.0	2	0	1.482	swap.bmp	gap.bmp
342.68	4.0	1	0	1.411	frost.bmp	cost.bmp
346.688	4.8	5	1	1.478	blackcross.bmp	blackcross.bmp
351.497	4.4	5	1	1.291	blackcross.bmp	blackcross.bmp
355.906	4.8	1	1	1.939	harm.bmp	farm.bmp
360.715	4.8	2	1	1.474	scratch.bmp	watch.bmp
365.525	5.2	5	0	n/a	blackcross.bmp	blackcross.bmp
