onset	duration	trial_type	accuracy	response_time	A_stim	B_stim
0.0	4.8	6	1	1.299	i.bmp	r.bmp
4.809000000000001	4.8	3	1	1.256	nuss.bmp	zus.bmp
9.618999999999996	4.4	3	1	1.237	slearn.bmp	zurn.bmp
14.028000000000002	4.0	3	1	1.638	plirk.bmp	swerk.bmp
18.035	4.0	3	1	1.159	pault.bmp	zalt.bmp
22.043000000000003	4.4	6	1	0.875	a.bmp	b.bmp
26.452	4.0	6	1	1.781	e.bmp	f.bmp
30.459999999999997	4.0	4	1	1.576	kearth.bmp	geath.bmp
34.468	4.8	4	1	1.484	preath.bmp	shworth.bmp
39.277	4.0	1	1	0.877	treal.bmp	cheal.bmp
43.285	4.8	5	1	1.545	blackcross.bmp	blackcross.bmp
48.09400000000001	4.4	6	1	2.517	w.bmp	e.bmp
52.503	4.4	2	0	1.359	crove.bmp	swove.bmp
56.912000000000006	4.4	3	1	1.135	dite.bmp	vight.bmp
61.32000000000001	4.0	2	0	1.422	creath.bmp	steath.bmp
65.328	4.0	3	1	1.536	kreens.bmp	speans.bmp
69.336	4.0	5	1	1.709	blackcross.bmp	blackcross.bmp
73.34400000000001	4.0	5	1	1.572	blackcross.bmp	blackcross.bmp
77.352	4.4	5	1	1.665	blackcross.bmp	blackcross.bmp
81.76100000000001	4.4	4	1	2.005	pread.bmp	slear.bmp
86.169	4.4	3	1	1.075	mide.bmp	jied.bmp
90.578	4.8	6	1	1.211	z.bmp	g.bmp
95.387	4.8	3	1	1.71	mense.bmp	shence.bmp
100.19700000000002	4.4	2	0	0.983	snull.bmp	chull.bmp
104.605	4.0	1	1	1.205	zite.bmp	pite.bmp
108.61300000000001	4.8	1	1	1.361	plapse.bmp	dapse.bmp
113.42300000000002	4.0	1	1	2.492	slutch.bmp	putch.bmp
117.431	4.0	5	1	1.368	blackcross.bmp	blackcross.bmp
121.43900000000001	4.0	5	1	1.779	blackcross.bmp	blackcross.bmp
125.44600000000001	4.0	5	1	1.656	blackcross.bmp	blackcross.bmp
129.45399999999998	4.8	2	0	1.59	nouth.bmp	scouth.bmp
134.26399999999998	4.4	6	1	2.336	y.bmp	o.bmp
138.672	4.8	3	1	1.978	splirt.bmp	furt.bmp
143.482	4.0	6	1	1.01	v.bmp	w.bmp
147.48999999999998	4.8	5	1	1.648	blackcross.bmp	blackcross.bmp
152.29899999999998	4.8	3	1	1.078	durf.bmp	merf.bmp
157.10899999999998	4.4	1	1	1.337	punge.bmp	crunge.bmp
161.517	4.8	5	1	1.704	blackcross.bmp	blackcross.bmp
166.327	4.8	5	1	1.494	blackcross.bmp	blackcross.bmp
171.136	4.8	5	1	1.501	blackcross.bmp	blackcross.bmp
175.946	4.0	5	1	1.699	blackcross.bmp	blackcross.bmp
179.95299999999997	4.8	5	1	1.502	blackcross.bmp	blackcross.bmp
184.76299999999998	4.0	2	1	1.469	twear.bmp	zear.bmp
188.771	4.4	1	1	1.232	pritz.bmp	vitz.bmp
193.179	4.0	2	0	2.023	spomb.bmp	clomb.bmp
197.18699999999998	4.8	1	1	2.151	snerge.bmp	gerge.bmp
201.99699999999999	4.8	5	1	1.39	blackcross.bmp	blackcross.bmp
206.80599999999998	4.4	6	1	1.185	v.bmp	m.bmp
211.21499999999997	4.8	4	1	1.802	shwarp.bmp	larm.bmp
216.024	4.0	2	0	0.98	larp.bmp	swarp.bmp
220.03199999999998	4.8	6	1	1.389	k.bmp	l.bmp
224.84199999999998	4.0	4	1	1.493	sull.bmp	trow.bmp
228.849	4.4	3	0	1.547	rith.bmp	nyth.bmp
233.25799999999998	4.4	4	0	1.481	palve.bmp	smove.bmp
237.66699999999997	4.0	2	0	2.586	shwarm.bmp	varm.bmp
241.675	4.0	4	1	1.209	zarp.bmp	twarm.bmp
245.683	4.8	5	1	1.724	blackcross.bmp	blackcross.bmp
250.49199999999996	4.8	4	1	1.279	glown.bmp	stomb.bmp
255.301	4.0	5	1	1.58	blackcross.bmp	blackcross.bmp
259.30899999999997	4.4	2	0	1.212	nearth.bmp	fearth.bmp
263.71799999999996	4.4	1	1	1.291	flirk.bmp	slirk.bmp
268.127	4.8	3	1	2.579	poat.bmp	wote.bmp
272.936	4.4	4	1	1.813	smow.bmp	vomb.bmp
277.34499999999997	4.4	5	1	1.658	blackcross.bmp	blackcross.bmp
281.753	4.0	3	1	1.323	twapse.bmp	praps.bmp
285.76099999999997	4.4	5	1	1.847	blackcross.bmp	blackcross.bmp
290.17	4.8	2	0	1.096	vose.bmp	plose.bmp
294.979	4.0	6	1	1.306	y.bmp	z.bmp
298.98699999999997	4.4	2	0	1.114	sworth.bmp	horth.bmp
303.396	4.4	5	1	1.97	blackcross.bmp	blackcross.bmp
307.805	4.8	4	1	1.417	plear.bmp	zour.bmp
312.614	4.4	2	0	1.272	frood.bmp	plood.bmp
317.02299999999997	4.4	1	0	2.162	sprune.bmp	yune.bmp
321.431	4.0	6	1	2.647	h.bmp	p.bmp
325.43899999999996	4.8	1	1	2.287	sterb.bmp	cherb.bmp
330.24899999999997	4.0	3	1	1.52	britz.bmp	swits.bmp
334.257	4.4	5	1	1.803	blackcross.bmp	blackcross.bmp
338.66499999999996	4.0	2	0	1.325	shrase.bmp	flase.bmp
342.673	4.0	1	1	2.497	brith.bmp	spith.bmp
346.681	4.8	5	1	1.557	blackcross.bmp	blackcross.bmp
351.49	4.4	5	1	1.586	blackcross.bmp	blackcross.bmp
355.899	4.8	1	1	1.181	yoat.bmp	zoat.bmp
360.70799999999997	4.8	2	0	0.995	grost.bmp	nost.bmp
365.518	5.2	5	1	1.467	blackcross.bmp	blackcross.bmp
