onset	duration	trial_type	accuracy	response_time	A_stim	B_stim
0.0	4.0	1	1	1.601	shove.wav	glove.bmp
4.008000000000038	4.4	4	1	1.001	swap.wav	watch.bmp
8.41700000000003	4.4	6	0	2.375	l.wav	d.bmp
12.826000000000022	4.8	4	0	1.409	dried.wav	stood.bmp
17.63499999999999	4.0	4	1	1.16	grace.wav	fence.bmp
21.64300000000003	4.0	5	1	1.391	blackcross.wav	blackcross.bmp
25.65100000000001	4.0	5	1	1.579	blackcross.wav	blackcross.bmp
29.658999999999992	4.4	5	1	1.497	blackcross.wav	blackcross.bmp
34.06700000000001	4.0	1	1	0.852	strap.wav	gap.bmp
38.07499999999999	4.4	5	1	1.446	blackcross.wav	blackcross.bmp
42.48400000000004	4.8	1	1	0.932	thread.wav	spread.bmp
47.29399999999998	4.8	4	1	0.958	port.wav	warm.bmp
52.10300000000001	4.8	2	1	1.224	gross.wav	moss.bmp
56.912000000000035	4.0	3	1	0.949	wheel.wav	deal.bmp
60.920000000000016	4.0	1	1	0.889	bluff.wav	puff.bmp
64.928	4.4	1	1	0.777	numb.wav	crumb.bmp
69.33699999999999	4.4	2	0	0.986	mouth.wav	youth.bmp
73.74600000000004	4.0	2	1	1.104	threat.wav	wheat.bmp
77.75400000000002	4.0	2	1	1.017	dull.wav	bull.bmp
81.76100000000002	4.8	5	1	1.571	blackcross.wav	blackcross.bmp
86.57100000000003	4.0	5	1	1.388	blackcross.wav	blackcross.bmp
90.57900000000001	4.4	3	0	1.199	flight.wav	spite.bmp
94.988	4.4	5	1	1.554	blackcross.wav	blackcross.bmp
99.39600000000002	4.8	5	1	1.439	blackcross.wav	blackcross.bmp
104.20600000000002	4.8	6	0	2.503	a.wav	b.bmp
109.01499999999999	4.4	3	1	1.104	roast.wav	ghost.bmp
113.42400000000004	4.4	1	1	1.06	sweep.wav	creep.bmp
117.83300000000003	4.8	5	1	1.483	blackcross.wav	blackcross.bmp
122.642	4.4	5	1	1.771	blackcross.wav	blackcross.bmp
127.05100000000004	4.0	1	1	1.292	quart.wav	wart.bmp
131.05899999999997	4.0	5	1	1.283	blackcross.wav	blackcross.bmp
135.06600000000003	4.0	2	0	0.863	fought.wav	drought.bmp
139.07399999999996	4.4	3	0	0.525	june.wav	noon.bmp
143.48300000000006	4.4	2	1	1.167	touch.wav	couch.bmp
147.89200000000005	4.0	6	0	1.587	c.wav	d.bmp
151.89999999999998	4.8	5	1	1.422	blackcross.wav	blackcross.bmp
156.70900000000006	4.8	5	1	1.629	blackcross.wav	blackcross.bmp
161.519	4.8	4	1	1.681	thief.wav	plead.bmp
166.32799999999997	4.0	4	0	0.985	gross.wav	post.bmp
170.336	4.0	3	0	0.623	pile.wav	trial.bmp
174.34400000000005	4.8	1	1	0.847	flood.wav	blood.bmp
179.15300000000002	4.8	2	1	1.168	glove.wav	stove.bmp
183.96299999999997	4.0	2	1	1.176	both.wav	cloth.bmp
187.971	4.4	2	1	2.395	cow.wav	glow.bmp
192.37900000000002	4.0	5	1	2.049	blackcross.wav	blackcross.bmp
196.38700000000006	4.4	1	1	1.675	glide.wav	bride.bmp
200.79600000000005	4.4	4	1	1.241	smart.wav	drought.bmp
205.20500000000004	4.0	6	1	2.47	m.wav	n.bmp
209.21299999999997	4.4	2	1	1.076	smooth.wav	tooth.bmp
213.62099999999998	4.4	5	1	1.549	blackcross.wav	blackcross.bmp
218.02999999999997	4.8	6	1	1.105	g.wav	h.bmp
222.83900000000006	5.2	3	1	0.851	thief.wav	beef.bmp
228.04999999999995	4.8	5	1	1.627	blackcross.wav	blackcross.bmp
232.85900000000004	4.8	1	0	2.201	fought.wav	sought.bmp
237.66899999999998	4.4	1	1	0.93	neat.wav	wheat.bmp
242.077	4.8	1	1	1.277	harm.wav	farm.bmp
246.88700000000006	4.8	4	1	1.127	wheel.wav	sneak.bmp
251.69600000000003	4.4	3	1	0.785	tense.wav	fence.bmp
256.105	4.0	5	1	1.624	blackcross.wav	blackcross.bmp
260.11300000000006	4.8	6	1	1.691	e.wav	f.bmp
264.922	4.0	6	1	1.394	v.wav	m.bmp
268.93000000000006	4.4	6	1	1.462	o.wav	p.bmp
273.33900000000006	4.0	4	1	1.027	ford.wav	rod.bmp
277.347	4.0	6	1	1.826	w.wav	e.bmp
281.355	4.4	4	1	1.108	glow.wav	stove.bmp
285.76300000000003	4.0	3	1	1.115	bride.wav	dried.bmp
289.77099999999996	4.0	5	1	1.672	blackcross.wav	blackcross.bmp
293.779	4.8	5	1	1.822	blackcross.wav	blackcross.bmp
298.58900000000006	4.8	6	1	1.542	k.wav	t.bmp
303.398	4.0	6	1	1.2	i.wav	r.bmp
307.40600000000006	4.8	1	1	0.701	bull.wav	full.bmp
312.216	4.8	2	1	3.331	plead.wav	spread.bmp
317.025	4.8	3	1	0.73	cheek.wav	sneak.bmp
321.83400000000006	4.0	5	1	1.412	blackcross.wav	blackcross.bmp
325.842	4.8	3	1	1.024	leap.wav	sweep.bmp
330.65200000000004	4.0	3	1	0.755	soup.wav	loop.bmp
334.65999999999997	4.4	2	1	1.113	tomb.wav	comb.bmp
339.068	4.8	3	1	0.872	warm.wav	form.bmp
343.87800000000004	4.4	5	1	1.401	blackcross.wav	blackcross.bmp
348.28700000000003	4.0	3	1	0.744	scheme.wav	cream.bmp
352.29499999999996	4.8	5	1	3.545	blackcross.wav	blackcross.bmp
357.10400000000004	4.4	4	1	1.026	stamp.wav	tomb.bmp
361.51300000000003	4.8	1	1	1.121	scheme.wav	theme.bmp
366.322	4.4	3	1	1.166	quart.wav	port.bmp
