onset	duration	trial_type	accuracy	response_time	A_stim	B_stim
0.0	4.0	1	1	1.471	shove.wav	glove.bmp
4.028999999999996	4.4	4	1	1.16	swap.wav	watch.bmp
8.458999999999946	4.4	6	0	1.681	l.wav	d.bmp
12.88900000000001	4.8	4	1	1.32	dried.wav	stood.bmp
17.704999999999927	4.0	4	0	1.594	grace.wav	fence.bmp
21.732999999999947	4.0	5	1	2.418	blackcross.wav	blackcross.bmp
25.761999999999944	4.0	5	1	1.731	blackcross.wav	blackcross.bmp
29.789999999999964	4.4	5	1	1.752	blackcross.wav	blackcross.bmp
34.219999999999914	4.0	1	0	1.532	strap.wav	gap.bmp
38.24899999999991	4.4	5	1	2.142	blackcross.wav	blackcross.bmp
42.678999999999974	4.8	1	0	1.165	thread.wav	spread.bmp
47.495000000000005	4.8	4	1	1.505	port.wav	warm.bmp
52.309999999999945	4.8	2	0	1.289	gross.wav	moss.bmp
57.14099999999996	4.0	3	1	1.236	wheel.wav	deal.bmp
61.16999999999996	4.0	1	0	1.129	bluff.wav	puff.bmp
65.19899999999996	4.4	1	0	1.053	numb.wav	crumb.bmp
69.6289999999999	4.4	2	1	1.372	mouth.wav	youth.bmp
74.05899999999997	4.0	2	0	1.326	threat.wav	wheat.bmp
78.08699999999999	4.0	2	1	1.429	dull.wav	bull.bmp
82.11599999999999	4.8	5	1	1.637	blackcross.wav	blackcross.bmp
86.9319999999999	4.0	5	1	2.119	blackcross.wav	blackcross.bmp
90.95999999999992	4.4	3	0	1.531	flight.wav	spite.bmp
95.38999999999999	4.4	5	1	2.48	blackcross.wav	blackcross.bmp
99.81999999999994	4.8	5	1	1.675	blackcross.wav	blackcross.bmp
104.63599999999997	4.8	6	1	1.708	a.wav	b.bmp
109.45099999999991	4.4	3	0	1.215	roast.wav	ghost.bmp
113.88099999999997	4.4	1	0	1.363	sweep.wav	creep.bmp
118.31099999999992	4.8	5	1	1.999	blackcross.wav	blackcross.bmp
123.12699999999995	4.4	5	1	1.794	blackcross.wav	blackcross.bmp
127.55599999999993	4.0	1	1	1.423	quart.wav	wart.bmp
131.58499999999992	4.0	5	1	1.76	blackcross.wav	blackcross.bmp
135.61399999999992	4.0	2	1	0.976	fought.wav	drought.bmp
139.64199999999994	4.4	3	1	1.143	june.wav	noon.bmp
144.072	4.4	2	1	1.164	touch.wav	couch.bmp
148.50199999999995	4.0	6	1	1.75	c.wav	d.bmp
152.53099999999995	4.8	5	1	1.64	blackcross.wav	blackcross.bmp
157.34699999999998	4.8	5	1	1.915	blackcross.wav	blackcross.bmp
162.16199999999992	4.8	4	1	1.585	thief.wav	plead.bmp
166.97699999999998	4.0	4	0	1.356	gross.wav	post.bmp
171.00599999999997	4.0	3	0	1.725	pile.wav	trial.bmp
175.034	4.8	1	0	1.366	flood.wav	blood.bmp
179.8499999999999	4.8	2	1	1.501	glove.wav	stove.bmp
184.66499999999996	4.0	2	1	1.619	both.wav	cloth.bmp
188.69399999999996	4.4	2	1	1.578	cow.wav	glow.bmp
193.1239999999999	4.0	5	1	1.882	blackcross.wav	blackcross.bmp
197.15199999999993	4.4	1	0	1.526	glide.wav	bride.bmp
201.58299999999997	4.4	4	1	0.983	smart.wav	drought.bmp
206.01299999999992	4.0	6	1	1.605	m.wav	n.bmp
210.04099999999994	4.4	2	1	1.23	smooth.wav	tooth.bmp
214.471	4.4	5	1	1.894	blackcross.wav	blackcross.bmp
218.90099999999995	4.8	6	1	1.69	g.wav	h.bmp
223.71699999999998	5.2	3	1	1.294	thief.wav	beef.bmp
228.933	4.8	5	1	3.419	blackcross.wav	blackcross.bmp
233.7489999999999	4.8	1	0	1.167	fought.wav	sought.bmp
238.56399999999996	4.4	1	0	1.242	neat.wav	wheat.bmp
242.99399999999991	4.8	1	0	1.079	harm.wav	farm.bmp
247.80899999999997	4.8	4	1	1.759	wheel.wav	sneak.bmp
252.625	4.4	3	1	1.167	tense.wav	fence.bmp
257.054	4.0	5	1	1.582	blackcross.wav	blackcross.bmp
261.08299999999997	4.8	6	0	1.342	e.wav	f.bmp
265.899	4.0	6	0	1.759	v.wav	m.bmp
269.9269999999999	4.4	6	1	1.071	o.wav	p.bmp
274.35699999999997	4.0	4	1	1.371	ford.wav	rod.bmp
278.38599999999997	4.0	6	1	1.366	w.wav	e.bmp
282.41499999999996	4.4	4	0	1.402	glow.wav	stove.bmp
286.8449999999999	4.0	3	0	1.345	bride.wav	dried.bmp
290.87299999999993	4.0	5	1	1.828	blackcross.wav	blackcross.bmp
294.90199999999993	4.8	5	1	1.631	blackcross.wav	blackcross.bmp
299.71799999999996	4.8	6	1	1.374	k.wav	t.bmp
304.533	4.0	6	0	0.967	i.wav	r.bmp
308.5609999999999	4.8	1	0	1.258	bull.wav	full.bmp
313.37699999999995	4.8	2	1	1.637	plead.wav	spread.bmp
318.192	4.8	3	1	1.565	cheek.wav	sneak.bmp
323.0079999999999	4.0	5	1	1.855	blackcross.wav	blackcross.bmp
327.03599999999994	4.8	3	1	1.169	leap.wav	sweep.bmp
331.852	4.0	3	1	1.543	soup.wav	loop.bmp
335.88	4.4	2	1	1.721	tomb.wav	comb.bmp
340.30999999999995	4.8	3	1	1.334	warm.wav	form.bmp
345.126	4.4	5	1	1.98	blackcross.wav	blackcross.bmp
349.55499999999995	4.0	3	1	1.063	scheme.wav	cream.bmp
353.58399999999995	4.8	5	1	1.543	blackcross.wav	blackcross.bmp
358.4	4.4	4	1	1.235	stamp.wav	tomb.bmp
362.82899999999995	4.8	1	1	1.531	scheme.wav	theme.bmp
367.645	4.4	3	1	1.136	quart.wav	port.bmp
