onset	duration	trial_type	accuracy	response_time	A_stim	B_stim
0.0	4.0	2	0	1.305	post.bmp	cost.bmp
4.0190000000000055	4.0	5	1	1.571	blackcross.bmp	blackcross.bmp
8.037999999999997	4.4	6	1	1.52	o.bmp	p.bmp
12.457999999999998	4.0	3	1	0.977	rum.bmp	numb.bmp
16.477000000000004	4.8	5	1	1.659	blackcross.bmp	blackcross.bmp
21.296999999999997	4.0	6	1	0.7	c.bmp	u.bmp
25.316000000000003	4.0	1	1	0.937	fought.bmp	sought.bmp
29.334999999999994	4.0	1	1	0.922	scheme.bmp	theme.bmp
33.355000000000004	4.0	6	1	0.848	m.bmp	n.bmp
37.373999999999995	4.4	1	1	1.187	stool.bmp	fool.bmp
41.793000000000006	4.4	5	1	1.491	blackcross.bmp	blackcross.bmp
46.212999999999994	4.4	1	1	0.699	soak.bmp	oak.bmp
50.632999999999996	4.4	2	0	1.119	threat.bmp	wheat.bmp
55.05200000000001	4.0	1	1	1.733	thread.bmp	spread.bmp
59.07199999999999	4.4	3	1	0.799	pile.bmp	trial.bmp
63.491	4.8	4	1	2.57	swap.bmp	watch.bmp
68.31099999999999	4.8	5	1	1.785	blackcross.bmp	blackcross.bmp
73.13199999999999	4.4	5	1	1.149	blackcross.bmp	blackcross.bmp
77.551	4.4	4	1	1.299	tough.bmp	dull.bmp
81.97099999999999	4.8	6	1	1.772	w.bmp	e.bmp
86.79100000000001	4.8	1	1	1.759	sweep.bmp	creep.bmp
91.61200000000001	4.8	6	1	1.058	k.bmp	t.bmp
96.432	4.4	5	1	1.264	blackcross.bmp	blackcross.bmp
100.85199999999999	4.4	3	1	1.411	stroke.bmp	soak.bmp
105.271	4.4	4	1	1.075	trial.bmp	fall.bmp
109.69099999999999	4.8	6	1	1.32	k.bmp	l.bmp
114.51100000000001	4.0	5	1	1.547	blackcross.bmp	blackcross.bmp
118.52999999999999	4.4	5	1	1.193	blackcross.bmp	blackcross.bmp
122.95	4.4	5	1	1.468	blackcross.bmp	blackcross.bmp
127.36999999999999	4.4	5	1	1.322	blackcross.bmp	blackcross.bmp
131.79000000000002	4.0	1	1	0.796	beef.bmp	reef.bmp
135.80900000000003	4.0	5	1	1.945	blackcross.bmp	blackcross.bmp
139.82799999999997	4.8	2	1	2.537	wart.bmp	smart.bmp
144.64800000000002	4.8	2	0	0.831	dose.bmp	pose.bmp
149.46800000000002	4.4	5	1	1.476	blackcross.bmp	blackcross.bmp
153.88799999999998	4.0	2	1	2.394	touch.bmp	couch.bmp
157.90699999999998	4.0	6	1	1.315	v.bmp	m.bmp
161.926	4.8	5	1	2.048	blackcross.bmp	blackcross.bmp
166.74599999999998	4.8	5	1	2.649	blackcross.bmp	blackcross.bmp
171.567	4.4	5	1	1.195	blackcross.bmp	blackcross.bmp
175.986	4.0	5	1	1.619	blackcross.bmp	blackcross.bmp
180.00600000000003	4.8	5	1	1.357	blackcross.bmp	blackcross.bmp
184.82600000000002	4.4	4	1	1.504	port.bmp	warm.bmp
189.24600000000004	4.8	3	0	n/a	june.bmp	noon.bmp
194.06600000000003	4.4	4	0	2.473	wreath.bmp	leap.bmp
198.486	4.0	5	1	1.38	blackcross.bmp	blackcross.bmp
202.505	4.4	6	1	1.236	c.bmp	d.bmp
206.92400000000004	4.4	2	1	1.164	glove.bmp	stove.bmp
211.344	4.8	1	1	0.805	numb.bmp	crumb.bmp
216.164	4.8	2	0	2.215	stood.bmp	flood.bmp
220.985	4.4	6	0	2.311	i.bmp	j.bmp
225.404	4.8	4	0	2.407	smart.bmp	drought.bmp
230.22500000000002	4.4	3	1	2.188	stir.bmp	blur.bmp
234.644	4.4	5	1	1.522	blackcross.bmp	blackcross.bmp
239.06400000000002	4.8	5	1	1.225	blackcross.bmp	blackcross.bmp
243.88400000000001	4.8	2	0	1.303	pool.bmp	wool.bmp
248.704	4.0	5	1	1.351	blackcross.bmp	blackcross.bmp
252.724	4.4	5	1	1.443	blackcross.bmp	blackcross.bmp
257.14300000000003	4.4	2	0	1.528	fought.bmp	drought.bmp
261.563	4.0	3	1	0.901	flight.bmp	spite.bmp
265.582	4.4	3	1	1.009	scheme.bmp	cream.bmp
270.002	4.0	6	0	1.965	z.bmp	g.bmp
274.021	4.8	4	0	1.23	ghost.bmp	pose.bmp
278.841	4.4	5	0	n/a	blackcross.bmp	blackcross.bmp
283.261	4.0	4	0	n/a	grace.bmp	fence.bmp
287.28000000000003	4.0	4	0	n/a	dried.bmp	stood.bmp
291.29900000000004	4.0	4	0	n/a	ford.bmp	rod.bmp
295.31800000000004	4.4	1	1	1.373	strap.bmp	gap.bmp
299.738	4.8	6	1	1.23	e.bmp	f.bmp
304.558	4.0	5	0	n/a	blackcross.bmp	blackcross.bmp
308.577	4.0	4	0	n/a	gross.bmp	post.bmp
312.596	4.0	4	0	n/a	fault.bmp	note.bmp
316.61600000000004	4.8	1	0	n/a	bull.bmp	full.bmp
321.43600000000004	4.8	3	1	1.71	chase.bmp	grace.bmp
326.25600000000003	4.0	3	1	1.321	float.bmp	note.bmp
330.27500000000003	4.8	3	1	1.404	bride.bmp	dried.bmp
335.095	4.8	4	0	n/a	thief.bmp	plead.bmp
339.916	4.4	1	0	n/a	bluff.bmp	puff.bmp
344.33500000000004	4.8	6	1	3.033	v.bmp	w.bmp
349.156	4.8	1	0	2.476	shove.bmp	glove.bmp
353.976	4.4	6	1	1.444	y.bmp	o.bmp
358.396	4.8	2	1	1.174	stamp.bmp	swamp.bmp
363.216	4.4	4	1	1.325	stamp.bmp	tomb.bmp
367.636	4.0	5	1	1.957	blackcross.bmp	blackcross.bmp
