onset	duration	trial_type	accuracy	response_time	A_stim	B_stim
0.0	4.8	6	1	1.035	a.bmp	s.bmp
4.833999999999975	4.8	3	1	1.433	fall.bmp	crawl.bmp
9.667000000000002	4.4	3	1	1.3	leap.bmp	sweep.bmp
14.113999999999976	4.0	3	1	1.463	tense.bmp	fence.bmp
18.159999999999997	4.0	3	1	1.574	soup.bmp	loop.bmp
22.20599999999999	4.4	6	1	1.839	j.bmp	b.bmp
26.63899999999998	4.0	6	1	1.958	h.bmp	p.bmp
30.670999999999992	4.0	4	0	2.092	pool.bmp	tooth.bmp
34.716999999999985	4.8	4	1	1.573	both.bmp	stroke.bmp
39.55099999999999	4.0	1	1	1.196	quart.bmp	wart.bmp
43.56999999999999	4.8	5	1	3.154	blackcross.bmp	blackcross.bmp
48.389999999999986	4.4	6	1	1.33	a.bmp	b.bmp
52.82299999999998	4.4	2	0	1.728	pint.bmp	hint.bmp
57.256	4.4	3	1	1.425	wheel.bmp	deal.bmp
61.67599999999999	4.0	2	0	2.036	smooth.bmp	tooth.bmp
65.70899999999997	4.0	3	1	1.544	stool.bmp	rule.bmp
69.72799999999998	4.0	5	1	1.807	blackcross.bmp	blackcross.bmp
73.74699999999999	4.0	5	1	1.543	blackcross.bmp	blackcross.bmp
77.76599999999999	4.4	5	1	1.294	blackcross.bmp	blackcross.bmp
82.19899999999998	4.4	4	0	1.582	flight.bmp	threat.bmp
86.64599999999999	4.4	3	1	1.446	bluff.bmp	tough.bmp
91.09200000000001	4.8	6	1	1.612	i.bmp	r.bmp
95.939	4.8	3	1	1.723	halt.bmp	fault.bmp
100.773	4.4	2	0	1.591	dull.bmp	bull.bmp
105.20599999999999	4.0	1	1	1.839	brow.bmp	cow.bmp
109.239	4.8	1	0	1.623	goat.bmp	float.bmp
114.08599999999998	4.0	1	1	1.608	glide.bmp	bride.bmp
118.10499999999999	4.0	5	1	2.738	blackcross.bmp	blackcross.bmp
122.124	4.0	5	1	1.761	blackcross.bmp	blackcross.bmp
126.143	4.0	5	1	1.697	blackcross.bmp	blackcross.bmp
130.17600000000002	4.8	2	0	1.77	plead.bmp	spread.bmp
135.009	4.4	6	1	1.4	t.bmp	u.bmp
139.44199999999998	4.8	3	0	2.019	roast.bmp	ghost.bmp
144.27599999999998	4.0	6	1	1.509	y.bmp	z.bmp
148.295	4.8	5	1	3.732	blackcross.bmp	blackcross.bmp
153.129	4.8	3	1	0.968	odd.bmp	rod.bmp
157.94999999999996	4.4	1	1	1.127	spoon.bmp	noon.bmp
162.369	4.8	5	1	1.627	blackcross.bmp	blackcross.bmp
167.17600000000002	4.8	5	1	1.815	blackcross.bmp	blackcross.bmp
171.98299999999998	4.8	5	1	1.588	blackcross.bmp	blackcross.bmp
176.79	4.0	5	1	1.607	blackcross.bmp	blackcross.bmp
180.809	4.8	5	1	1.816	blackcross.bmp	blackcross.bmp
185.643	4.0	2	0	2.007	breath.bmp	wreath.bmp
189.67499999999998	4.4	1	1	1.385	neat.bmp	wheat.bmp
194.12199999999999	4.0	2	1	1.397	mouth.bmp	youth.bmp
198.15399999999997	4.8	1	1	1.429	toss.bmp	moss.bmp
202.96099999999998	4.8	5	0	n/a	blackcross.bmp	blackcross.bmp
207.795	4.4	6	1	1.216	g.bmp	h.bmp
212.20199999999997	4.8	4	1	1.713	rule.bmp	blur.bmp
217.04799999999997	4.0	2	1	2.625	tomb.bmp	comb.bmp
221.06699999999998	4.8	6	1	1.233	r.bmp	s.bmp
225.90099999999998	4.0	4	1	1.456	june.bmp	loop.bmp
229.934	4.4	3	1	1.686	warm.bmp	form.bmp
234.367	4.4	4	1	1.697	rum.bmp	touch.bmp
238.79999999999998	4.0	2	1	1.912	gross.bmp	moss.bmp
242.819	4.0	4	0	1.171	glow.bmp	stove.bmp
246.838	4.8	5	1	3.236	blackcross.bmp	blackcross.bmp
251.645	4.8	4	0	1.673	wheel.bmp	sneak.bmp
256.452	4.0	5	1	1.424	blackcross.bmp	blackcross.bmp
260.471	4.4	2	0	1.862	cow.bmp	glow.bmp
264.918	4.4	1	1	1.687	pile.bmp	mile.bmp
269.351	4.8	3	1	2.292	cheek.bmp	sneak.bmp
274.158	4.4	4	1	1.219	youth.bmp	hint.bmp
278.56399999999996	4.4	5	1	1.568	blackcross.bmp	blackcross.bmp
283.01099999999997	4.0	3	1	2.38	thief.bmp	beef.bmp
287.03	4.4	5	1	2.057	blackcross.bmp	blackcross.bmp
291.46299999999997	4.8	2	1	1.67	swarm.bmp	harm.bmp
296.30999999999995	4.0	6	1	1.214	l.bmp	d.bmp
300.32899999999995	4.4	2	1	1.656	both.bmp	cloth.bmp
304.749	4.4	5	1	1.692	blackcross.bmp	blackcross.bmp
309.182	4.8	4	0	2.436	cream.bmp	swarm.bmp
314.01599999999996	4.4	2	0	2.401	ford.bmp	word.bmp
318.44899999999996	4.4	1	1	1.347	vase.bmp	chase.bmp
322.86800000000005	4.0	6	1	1.809	f.bmp	n.bmp
326.90100000000007	4.8	1	1	1.258	flood.bmp	blood.bmp
331.721	4.0	3	1	1.702	quart.bmp	port.bmp
335.74	4.4	5	1	1.76	blackcross.bmp	blackcross.bmp
340.187	4.0	2	1	1.85	swap.bmp	gap.bmp
344.21900000000005	4.0	1	0	2.734	frost.bmp	cost.bmp
348.23800000000006	4.8	5	1	0.005	blackcross.bmp	blackcross.bmp
353.0450000000001	4.4	5	1	1.626	blackcross.bmp	blackcross.bmp
357.46500000000003	4.8	1	1	1.749	harm.bmp	farm.bmp
362.312	4.8	2	0	1.946	scratch.bmp	watch.bmp
367.119	5.2	5	0	n/a	blackcross.bmp	blackcross.bmp
