onset	duration	trial_type	accuracy	response_time	A_stim	B_stim
0.0	4.8	6	1	0.778	i.bmp	r.bmp
4.8430000000000035	4.8	3	0	1.286	nuss.bmp	zus.bmp
9.686999999999998	4.4	3	0	1.575	slearn.bmp	zurn.bmp
14.128999999999998	4.0	3	0	1.108	plirk.bmp	swerk.bmp
18.186999999999998	4.0	3	0	0.757	pault.bmp	zalt.bmp
22.212000000000003	4.4	6	1	0.957	a.bmp	b.bmp
26.654999999999994	4.0	6	1	0.772	e.bmp	f.bmp
30.68	4.0	4	1	1.291	kearth.bmp	geath.bmp
34.721	4.8	4	1	1.251	preath.bmp	shworth.bmp
39.565000000000005	4.0	1	1	1.41	treal.bmp	cheal.bmp
43.589999999999996	4.8	5	1	1.37	blackcross.bmp	blackcross.bmp
48.433	4.4	6	1	1.413	w.bmp	e.bmp
52.859	4.4	2	0	1.682	crove.bmp	swove.bmp
57.300999999999995	4.4	3	1	1.312	dite.bmp	vight.bmp
61.743	4.0	2	1	1.007	creath.bmp	steath.bmp
65.769	4.0	3	1	1.113	kreens.bmp	speans.bmp
69.793	4.0	5	1	1.293	blackcross.bmp	blackcross.bmp
73.81800000000001	4.0	5	1	1.245	blackcross.bmp	blackcross.bmp
77.84299999999999	4.4	5	1	1.151	blackcross.bmp	blackcross.bmp
82.286	4.4	4	1	1.275	pread.bmp	slear.bmp
86.72800000000001	4.4	3	1	1.493	mide.bmp	jied.bmp
91.17000000000002	4.8	6	1	1.402	z.bmp	g.bmp
96.01400000000001	4.8	3	0	n/a	mense.bmp	shence.bmp
100.857	4.4	2	0	1.165	snull.bmp	chull.bmp
105.299	4.0	1	1	2.119	zite.bmp	pite.bmp
109.32400000000001	4.8	1	0	2.119	plapse.bmp	dapse.bmp
114.168	4.0	1	1	0.907	slutch.bmp	putch.bmp
118.19300000000001	4.0	5	1	1.134	blackcross.bmp	blackcross.bmp
122.21700000000001	4.0	5	1	1.256	blackcross.bmp	blackcross.bmp
126.24200000000002	4.0	5	1	1.274	blackcross.bmp	blackcross.bmp
130.267	4.8	2	0	1.099	nouth.bmp	scouth.bmp
135.11100000000002	4.4	6	1	0.811	y.bmp	o.bmp
139.553	4.8	3	1	1.575	splirt.bmp	furt.bmp
144.38	4.0	6	1	0.926	v.bmp	w.bmp
148.404	4.8	5	1	1.129	blackcross.bmp	blackcross.bmp
153.24800000000002	4.8	3	1	1.369	durf.bmp	merf.bmp
158.091	4.4	1	1	1.194	punge.bmp	crunge.bmp
162.517	4.8	5	1	1.309	blackcross.bmp	blackcross.bmp
167.34300000000002	4.8	5	1	1.169	blackcross.bmp	blackcross.bmp
172.17000000000002	4.8	5	1	1.22	blackcross.bmp	blackcross.bmp
176.996	4.0	5	1	1.207	blackcross.bmp	blackcross.bmp
181.02100000000002	4.8	5	1	1.463	blackcross.bmp	blackcross.bmp
185.848	4.0	2	0	1.32	twear.bmp	zear.bmp
189.89000000000001	4.4	1	1	1.384	pritz.bmp	vitz.bmp
194.332	4.0	2	0	1.497	spomb.bmp	clomb.bmp
198.374	4.8	1	1	1.791	snerge.bmp	gerge.bmp
203.20000000000002	4.8	5	1	1.088	blackcross.bmp	blackcross.bmp
208.02700000000002	4.4	6	1	1.023	v.bmp	m.bmp
212.469	4.8	4	1	1.606	shwarp.bmp	larm.bmp
217.29600000000002	4.0	2	0	1.328	larp.bmp	swarp.bmp
221.321	4.8	6	1	0.932	k.bmp	l.bmp
226.16400000000002	4.0	4	1	1.032	sull.bmp	trow.bmp
230.206	4.4	3	0	1.2	rith.bmp	nyth.bmp
234.648	4.4	4	1	1.524	palve.bmp	smove.bmp
239.09	4.0	2	1	2.559	shwarm.bmp	varm.bmp
243.13200000000003	4.0	4	0	1.376	zarp.bmp	twarm.bmp
247.157	4.8	5	1	1.141	blackcross.bmp	blackcross.bmp
252.00000000000003	4.8	4	1	0.884	glown.bmp	stomb.bmp
256.827	4.0	5	1	1.091	blackcross.bmp	blackcross.bmp
260.852	4.4	2	1	1.054	nearth.bmp	fearth.bmp
265.294	4.4	1	0	1.163	flirk.bmp	slirk.bmp
269.73699999999997	4.8	3	1	0.839	poat.bmp	wote.bmp
274.58	4.4	4	1	1.337	smow.bmp	vomb.bmp
279.006	4.4	5	1	1.159	blackcross.bmp	blackcross.bmp
283.431	4.0	3	0	1.58	twapse.bmp	praps.bmp
287.45599999999996	4.4	5	1	1.28	blackcross.bmp	blackcross.bmp
291.899	4.8	2	1	1.388	vose.bmp	plose.bmp
296.72499999999997	4.0	6	1	1.41	y.bmp	z.bmp
300.767	4.4	2	0	1.443	sworth.bmp	horth.bmp
305.193	4.4	5	1	1.361	blackcross.bmp	blackcross.bmp
309.635	4.8	4	1	0.829	plear.bmp	zour.bmp
314.47799999999995	4.4	2	1	1.807	frood.bmp	plood.bmp
318.921	4.4	1	1	1.046	sprune.bmp	yune.bmp
323.347	4.0	6	1	1.299	h.bmp	p.bmp
327.388	4.8	1	1	1.008	sterb.bmp	cherb.bmp
332.231	4.0	3	0	1.168	britz.bmp	swits.bmp
336.256	4.4	5	1	1.129	blackcross.bmp	blackcross.bmp
340.69899999999996	4.0	2	0	1.384	shrase.bmp	flase.bmp
344.724	4.0	1	0	1.654	brith.bmp	spith.bmp
348.74899999999997	4.8	5	1	1.706	blackcross.bmp	blackcross.bmp
353.575	4.4	5	1	1.296	blackcross.bmp	blackcross.bmp
358.018	4.8	1	1	1.347	yoat.bmp	zoat.bmp
362.878	4.8	2	0	1.189	grost.bmp	nost.bmp
367.70399999999995	5.2	5	0	n/a	blackcross.bmp	blackcross.bmp
