onset	duration	trial_type	accuracy	response_time	A_stim	B_stim
0.0	4.0	2	0	1.307	slour.bmp	vour.bmp
4.0190000000000055	4.0	5	1	1.496	blackcross.bmp	blackcross.bmp
8.038000000000004	4.0	6	1	1.313	a.bmp	s.bmp
12.057000000000002	4.0	3	1	1.435	reash.bmp	sliche.bmp
16.076	4.4	5	1	1.577	blackcross.bmp	blackcross.bmp
20.49600000000001	4.4	6	1	1.167	i.bmp	j.bmp
24.915999999999997	4.4	1	1	1.95	treens.bmp	smeens.bmp
29.335000000000008	4.4	1	1	1.297	vuss.bmp	duss.bmp
33.75500000000001	4.8	6	1	1.255	f.bmp	n.bmp
38.575	4.8	1	1	1.324	zurf.bmp	hurf.bmp
43.39500000000001	4.8	5	1	1.293	blackcross.bmp	blackcross.bmp
48.21600000000001	4.8	1	0	1.414	crelm.bmp	melm.bmp
53.04900000000001	4.0	2	0	1.292	clease.bmp	prease.bmp
57.08200000000001	4.0	1	1	1.621	twirt.bmp	stirt.bmp
61.114000000000004	4.4	3	0	2.423	slurl.bmp	dirl.bmp
65.547	4.4	4	1	1.249	blease.bmp	seaf.bmp
69.967	4.4	5	1	1.807	blackcross.bmp	blackcross.bmp
74.387	4.8	5	1	1.748	blackcross.bmp	blackcross.bmp
79.233	4.8	4	1	1.246	quarf.bmp	ralve.bmp
84.054	4.8	6	1	1.252	m.bmp	n.bmp
88.91400000000002	4.8	1	0	2.007	clurl.bmp	turl.bmp
93.73400000000001	4.8	6	1	1.522	r.bmp	s.bmp
98.554	4.0	5	1	2.165	blackcross.bmp	blackcross.bmp
102.58700000000002	4.0	3	0	1.333	brunge.bmp	skonge.bmp
106.619	4.0	4	0	1.297	strough.bmp	wouth.bmp
110.638	4.4	6	1	1.269	l.bmp	d.bmp
115.05799999999999	4.4	5	1	1.932	blackcross.bmp	blackcross.bmp
119.47800000000001	4.4	5	1	1.692	blackcross.bmp	blackcross.bmp
123.89699999999999	4.4	5	1	2.074	blackcross.bmp	blackcross.bmp
128.317	4.8	5	1	2.063	blackcross.bmp	blackcross.bmp
133.151	4.8	1	1	1.485	crense.bmp	nense.bmp
137.971	4.8	5	1	1.772	blackcross.bmp	blackcross.bmp
142.818	4.0	2	0	1.773	twough.bmp	drough.bmp
146.85	4.0	2	0	1.836	twarf.bmp	starf.bmp
150.869	4.0	5	1	1.873	blackcross.bmp	blackcross.bmp
154.90200000000002	4.0	2	0	2.123	meaf.bmp	teaf.bmp
158.921	4.0	6	1	1.284	t.bmp	u.bmp
162.94	4.4	5	1	1.549	blackcross.bmp	blackcross.bmp
167.36	4.4	5	1	1.822	blackcross.bmp	blackcross.bmp
171.779	4.4	5	1	1.686	blackcross.bmp	blackcross.bmp
176.199	4.4	5	1	1.948	blackcross.bmp	blackcross.bmp
180.619	4.4	5	1	2.03	blackcross.bmp	blackcross.bmp
185.065	4.8	4	1	1.166	vood.bmp	shase.bmp
189.912	4.8	3	1	0.797	glutch.bmp	nuch.bmp
194.75900000000001	4.8	4	1	0.943	plange.bmp	jase.bmp
199.579	4.8	5	1	1.924	blackcross.bmp	blackcross.bmp
204.399	4.0	6	1	0.81	c.bmp	u.bmp
208.43200000000002	4.4	2	0	0.415	slange.bmp	prange.bmp
212.87800000000001	4.0	1	1	1.553	vearn.bmp	glearn.bmp
216.91100000000003	4.0	2	0	1.219	zalve.bmp	walve.bmp
220.92999999999998	4.0	6	1	1.183	j.bmp	b.bmp
224.96200000000002	4.0	4	1	1.943	sharf.bmp	twove.bmp
228.99499999999998	4.0	3	1	1.075	chelm.bmp	swealm.bmp
233.01399999999998	4.0	5	1	1.592	blackcross.bmp	blackcross.bmp
237.033	4.0	5	1	1.443	blackcross.bmp	blackcross.bmp
241.06500000000003	4.4	2	0	2.663	plown.bmp	rown.bmp
245.48499999999999	4.4	5	1	1.434	blackcross.bmp	blackcross.bmp
249.905	4.4	5	1	1.467	blackcross.bmp	blackcross.bmp
254.338	4.4	2	0	1.001	glead.bmp	jead.bmp
258.77099999999996	4.4	3	0	1.126	shrune.bmp	hoon.bmp
263.20399999999995	4.4	3	0	1.476	pript.bmp	shrypt.bmp
267.63700000000006	4.4	6	1	1.104	g.bmp	h.bmp
272.08299999999997	4.4	4	1	1.13	splour.bmp	morth.bmp
276.50300000000004	4.4	5	1	2.579	blackcross.bmp	blackcross.bmp
280.93600000000004	4.4	4	1	1.004	learth.bmp	plost.bmp
285.369	4.8	4	1	0.838	neaf.bmp	shrease.bmp
290.202	4.8	4	0	1.763	scose.bmp	brost.bmp
295.063	4.8	1	1	1.763	plipt.bmp	bipt.bmp
299.88300000000004	4.8	6	1	1.191	o.bmp	p.bmp
304.703	4.8	5	1	1.854	blackcross.bmp	blackcross.bmp
309.53700000000003	4.8	4	1	0.909	spouth.bmp	zull.bmp
314.37	4.0	4	1	1.428	drose.bmp	crange.bmp
318.403	4.0	1	1	1.434	swault.bmp	lault.bmp
322.43500000000006	4.0	3	1	1.491	derb.bmp	shurb.bmp
326.46799999999996	4.0	3	1	2.344	nerge.bmp	yurge.bmp
330.51300000000003	4.4	3	1	0.857	yeal.bmp	sheel.bmp
334.946	4.4	4	1	1.155	glough.bmp	vown.bmp
339.39300000000003	4.4	1	1	1.385	twide.bmp	stide.bmp
343.812	4.4	6	1	0.794	c.bmp	d.bmp
348.259	4.8	1	1	1.029	preash.bmp	sleash.bmp
353.07899999999995	4.8	6	1	0.976	k.bmp	t.bmp
357.913	4.8	2	0	0.974	zow.bmp	shrow.bmp
362.746	4.8	4	1	0.997	vead.bmp	slood.bmp
367.56600000000003	4.8	5	1	1.574	blackcross.bmp	blackcross.bmp
