onset	duration	trial_type	accuracy	response_time	A_stim	B_stim
0.0	4.8	6	1	1.206	i.bmp	r.bmp
4.809000000000005	4.8	3	1	1.502	nuss.bmp	zus.bmp
9.619	4.4	3	1	1.887	slearn.bmp	zurn.bmp
14.027000000000001	4.0	3	0	1.943	plirk.bmp	swerk.bmp
18.035000000000004	4.0	3	1	1.264	pault.bmp	zalt.bmp
22.043	4.4	6	1	1.155	a.bmp	b.bmp
26.451999999999998	4.0	6	1	1.11	e.bmp	f.bmp
30.46	4.0	4	0	1.458	kearth.bmp	geath.bmp
34.467999999999996	4.8	4	0	1.35	preath.bmp	shworth.bmp
39.27700000000001	4.0	1	1	1.328	treal.bmp	cheal.bmp
43.285000000000004	4.8	5	1	2.376	blackcross.bmp	blackcross.bmp
48.094	4.4	6	1	1.444	w.bmp	e.bmp
52.50300000000001	4.4	2	0	1.36	crove.bmp	swove.bmp
56.912	4.4	3	0	1.618	dite.bmp	vight.bmp
61.321000000000005	4.0	2	0	1.396	creath.bmp	steath.bmp
65.328	4.0	3	1	0.982	kreens.bmp	speans.bmp
69.33600000000001	4.0	5	1	1.644	blackcross.bmp	blackcross.bmp
73.344	4.0	5	1	1.728	blackcross.bmp	blackcross.bmp
77.352	4.4	5	1	2.005	blackcross.bmp	blackcross.bmp
81.761	4.4	4	1	1.232	pread.bmp	slear.bmp
86.16999999999999	4.4	3	1	2.713	mide.bmp	jied.bmp
90.578	4.8	6	1	1.218	z.bmp	g.bmp
95.388	4.8	3	1	1.677	mense.bmp	shence.bmp
100.197	4.4	2	0	0.925	snull.bmp	chull.bmp
104.606	4.0	1	1	1.524	zite.bmp	pite.bmp
108.614	4.8	1	1	1.533	plapse.bmp	dapse.bmp
113.423	4.0	1	1	1.107	slutch.bmp	putch.bmp
117.43099999999998	4.0	5	1	1.531	blackcross.bmp	blackcross.bmp
121.439	4.0	5	0	n/a	blackcross.bmp	blackcross.bmp
125.447	4.0	5	1	1.687	blackcross.bmp	blackcross.bmp
129.45499999999998	4.8	2	0	1.109	nouth.bmp	scouth.bmp
134.26399999999998	4.4	6	1	1.378	y.bmp	o.bmp
138.673	4.8	3	1	1.398	splirt.bmp	furt.bmp
143.482	4.0	6	1	1.304	v.bmp	w.bmp
147.48999999999998	4.8	5	1	1.847	blackcross.bmp	blackcross.bmp
152.29999999999998	4.8	3	1	1.579	durf.bmp	merf.bmp
157.10899999999998	4.4	1	1	1.466	punge.bmp	crunge.bmp
161.518	4.8	5	1	1.674	blackcross.bmp	blackcross.bmp
166.327	4.8	5	1	1.898	blackcross.bmp	blackcross.bmp
171.137	4.8	5	1	1.763	blackcross.bmp	blackcross.bmp
175.946	4.0	5	1	1.748	blackcross.bmp	blackcross.bmp
179.954	4.8	5	1	1.713	blackcross.bmp	blackcross.bmp
184.76399999999998	4.0	2	0	2.489	twear.bmp	zear.bmp
188.772	4.4	1	1	1.45	pritz.bmp	vitz.bmp
193.18	4.0	2	0	1.211	spomb.bmp	clomb.bmp
197.188	4.8	1	1	0.921	snerge.bmp	gerge.bmp
201.998	4.8	5	1	1.767	blackcross.bmp	blackcross.bmp
206.807	4.4	6	1	1.206	v.bmp	m.bmp
211.216	4.8	4	1	1.411	shwarp.bmp	larm.bmp
216.025	4.0	2	0	1.334	larp.bmp	swarp.bmp
220.033	4.8	6	1	1.101	k.bmp	l.bmp
224.843	4.0	4	1	1.631	sull.bmp	trow.bmp
228.85099999999997	4.4	3	1	1.429	rith.bmp	nyth.bmp
233.259	4.4	4	1	1.536	palve.bmp	smove.bmp
237.66799999999998	4.0	2	1	2.174	shwarm.bmp	varm.bmp
241.67600000000002	4.0	4	1	1.471	zarp.bmp	twarm.bmp
245.684	4.8	5	1	1.715	blackcross.bmp	blackcross.bmp
250.49299999999997	4.8	4	1	1.479	glown.bmp	stomb.bmp
255.30299999999997	4.0	5	1	2.03	blackcross.bmp	blackcross.bmp
259.31100000000004	4.4	2	0	1.156	nearth.bmp	fearth.bmp
263.71900000000005	4.4	1	1	1.288	flirk.bmp	slirk.bmp
268.12800000000004	4.8	3	1	1.189	poat.bmp	wote.bmp
272.937	4.4	4	0	1.286	smow.bmp	vomb.bmp
277.346	4.4	5	1	1.878	blackcross.bmp	blackcross.bmp
281.755	4.0	3	0	2.335	twapse.bmp	praps.bmp
285.76300000000003	4.4	5	1	1.824	blackcross.bmp	blackcross.bmp
290.17100000000005	4.8	2	1	2.123	vose.bmp	plose.bmp
294.981	4.0	6	1	2.07	y.bmp	z.bmp
298.98900000000003	4.4	2	0	0.794	sworth.bmp	horth.bmp
303.39700000000005	4.4	5	1	1.728	blackcross.bmp	blackcross.bmp
307.80600000000004	4.8	4	0	1.423	plear.bmp	zour.bmp
312.61600000000004	4.4	2	0	1.48	frood.bmp	plood.bmp
317.024	4.4	1	1	2.786	sprune.bmp	yune.bmp
321.43300000000005	4.0	6	1	1.166	h.bmp	p.bmp
325.44100000000003	4.8	1	1	1.177	sterb.bmp	cherb.bmp
330.25	4.0	3	0	1.481	britz.bmp	swits.bmp
334.25800000000004	4.4	5	1	1.902	blackcross.bmp	blackcross.bmp
338.66700000000003	4.0	2	0	1.603	shrase.bmp	flase.bmp
342.675	4.0	1	1	1.226	brith.bmp	spith.bmp
346.68300000000005	4.8	5	1	2.124	blackcross.bmp	blackcross.bmp
351.492	4.4	5	1	1.871	blackcross.bmp	blackcross.bmp
355.901	4.8	1	1	1.392	yoat.bmp	zoat.bmp
360.71000000000004	4.8	2	0	1.335	grost.bmp	nost.bmp
365.52000000000004	5.2	5	1	1.909	blackcross.bmp	blackcross.bmp
