onset	duration	trial_type	accuracy	response_time	A_stim	B_stim
0.0	4.8	6	1	0.744	i.bmp	r.bmp
4.810000000000002	4.8	3	1	1.427	nuss.bmp	zus.bmp
9.619999999999997	4.4	3	1	1.227	slearn.bmp	zurn.bmp
14.028999999999996	4.0	3	1	0.958	plirk.bmp	swerk.bmp
18.037999999999997	4.0	3	1	0.932	pault.bmp	zalt.bmp
22.046	4.4	6	1	1.588	a.bmp	b.bmp
26.455	4.0	6	0	1.532	e.bmp	f.bmp
30.464	4.0	4	1	1.077	kearth.bmp	geath.bmp
34.472	4.8	4	1	1.201	preath.bmp	shworth.bmp
39.281	4.0	1	1	0.954	treal.bmp	cheal.bmp
43.29	4.8	5	1	1.137	blackcross.bmp	blackcross.bmp
48.1	4.4	6	0	n/a	w.bmp	e.bmp
52.50899999999999	4.4	2	0	0.9	crove.bmp	swove.bmp
56.918	4.4	3	1	0.956	dite.bmp	vight.bmp
61.327000000000005	4.0	2	0	0.824	creath.bmp	steath.bmp
65.33600000000001	4.0	3	1	0.987	kreens.bmp	speans.bmp
69.344	4.0	5	1	1.339	blackcross.bmp	blackcross.bmp
73.352	4.0	5	1	1.299	blackcross.bmp	blackcross.bmp
77.36000000000001	4.4	5	1	1.156	blackcross.bmp	blackcross.bmp
81.769	4.4	4	1	0.934	pread.bmp	slear.bmp
86.178	4.4	3	1	1.214	mide.bmp	jied.bmp
90.58699999999999	4.8	6	1	0.616	z.bmp	g.bmp
95.39699999999999	4.8	3	1	1.25	mense.bmp	shence.bmp
100.207	4.4	2	0	0.925	snull.bmp	chull.bmp
104.61599999999999	4.0	1	1	0.709	zite.bmp	pite.bmp
108.625	4.8	1	1	1.14	plapse.bmp	dapse.bmp
113.435	4.0	1	1	0.946	slutch.bmp	putch.bmp
117.44299999999998	4.0	5	1	1.622	blackcross.bmp	blackcross.bmp
121.451	4.0	5	1	1.399	blackcross.bmp	blackcross.bmp
125.45999999999998	4.0	5	1	1.421	blackcross.bmp	blackcross.bmp
129.468	4.8	2	0	1.131	nouth.bmp	scouth.bmp
134.278	4.4	6	1	1.306	y.bmp	o.bmp
138.68699999999998	4.8	3	1	1.692	splirt.bmp	furt.bmp
143.49699999999999	4.0	6	1	0.549	v.bmp	w.bmp
147.505	4.8	5	1	1.424	blackcross.bmp	blackcross.bmp
152.315	4.8	3	1	1.015	durf.bmp	merf.bmp
157.125	4.4	1	1	0.967	punge.bmp	crunge.bmp
161.534	4.8	5	1	1.469	blackcross.bmp	blackcross.bmp
166.344	4.8	5	1	1.538	blackcross.bmp	blackcross.bmp
171.154	4.8	5	1	1.512	blackcross.bmp	blackcross.bmp
175.964	4.0	5	1	1.276	blackcross.bmp	blackcross.bmp
179.97199999999998	4.8	5	1	1.321	blackcross.bmp	blackcross.bmp
184.78199999999998	4.0	2	0	1.536	twear.bmp	zear.bmp
188.791	4.4	1	1	0.824	pritz.bmp	vitz.bmp
193.2	4.0	2	1	1.111	spomb.bmp	clomb.bmp
197.208	4.8	1	1	1.206	snerge.bmp	gerge.bmp
202.018	4.8	5	1	1.192	blackcross.bmp	blackcross.bmp
206.828	4.4	6	1	0.779	v.bmp	m.bmp
211.237	4.8	4	0	0.92	shwarp.bmp	larm.bmp
216.047	4.0	2	0	0.801	larp.bmp	swarp.bmp
220.05599999999998	4.8	6	1	0.947	k.bmp	l.bmp
224.86499999999998	4.0	4	1	1.422	sull.bmp	trow.bmp
228.874	4.4	3	1	1.0	rith.bmp	nyth.bmp
233.283	4.4	4	1	1.226	palve.bmp	smove.bmp
237.69199999999998	4.0	2	0	1.41	shwarm.bmp	varm.bmp
241.70000000000002	4.0	4	0	0.878	zarp.bmp	twarm.bmp
245.708	4.8	5	1	1.616	blackcross.bmp	blackcross.bmp
250.518	4.8	4	0	0.849	glown.bmp	stomb.bmp
255.328	4.0	5	1	1.201	blackcross.bmp	blackcross.bmp
259.33700000000005	4.4	2	0	0.943	nearth.bmp	fearth.bmp
263.745	4.4	1	1	0.855	flirk.bmp	slirk.bmp
268.15500000000003	4.8	3	1	1.071	poat.bmp	wote.bmp
272.96500000000003	4.4	4	0	1.1	smow.bmp	vomb.bmp
277.374	4.4	5	1	1.096	blackcross.bmp	blackcross.bmp
281.783	4.0	3	0	0.741	twapse.bmp	praps.bmp
285.791	4.4	5	1	1.146	blackcross.bmp	blackcross.bmp
290.20000000000005	4.8	2	0	0.901	vose.bmp	plose.bmp
295.01000000000005	4.0	6	1	0.604	y.bmp	z.bmp
299.019	4.4	2	0	0.87	sworth.bmp	horth.bmp
303.428	4.4	5	1	1.2	blackcross.bmp	blackcross.bmp
307.83700000000005	4.8	4	1	1.61	plear.bmp	zour.bmp
312.64700000000005	4.4	2	0	1.271	frood.bmp	plood.bmp
317.05600000000004	4.4	1	1	0.714	sprune.bmp	yune.bmp
321.46500000000003	4.0	6	1	0.977	h.bmp	p.bmp
325.47400000000005	4.8	1	1	0.938	sterb.bmp	cherb.bmp
330.283	4.0	3	1	0.892	britz.bmp	swits.bmp
334.291	4.4	5	1	1.332	blackcross.bmp	blackcross.bmp
338.70000000000005	4.0	2	0	1.344	shrase.bmp	flase.bmp
342.709	4.0	1	1	0.939	brith.bmp	spith.bmp
346.71700000000004	4.8	5	1	1.505	blackcross.bmp	blackcross.bmp
351.52700000000004	4.4	5	1	1.437	blackcross.bmp	blackcross.bmp
355.93600000000004	4.8	1	1	0.701	yoat.bmp	zoat.bmp
360.74600000000004	4.8	2	0	0.735	grost.bmp	nost.bmp
365.55600000000004	5.2	5	0	n/a	blackcross.bmp	blackcross.bmp
