onset	duration	trial_type	accuracy	response_time	A_stim	B_stim
0.0	4.0	2	0	1.176	slour.bmp	vour.bmp
4.024999999999999	4.0	5	1	1.023	blackcross.bmp	blackcross.bmp
8.067	4.0	6	1	0.657	a.bmp	s.bmp
12.109000000000002	4.0	3	0	0.965	reash.bmp	sliche.bmp
16.134	4.4	5	1	0.867	blackcross.bmp	blackcross.bmp
20.576	4.4	6	1	0.645	i.bmp	j.bmp
25.019	4.4	1	1	1.16	treens.bmp	smeens.bmp
29.461000000000006	4.4	1	1	0.945	vuss.bmp	duss.bmp
33.88700000000001	4.8	6	1	0.498	f.bmp	n.bmp
38.73	4.8	1	1	1.024	zurf.bmp	hurf.bmp
43.556999999999995	4.8	5	1	1.052	blackcross.bmp	blackcross.bmp
48.4	4.8	1	1	0.994	crelm.bmp	melm.bmp
53.26	4.0	2	0	0.996	clease.bmp	prease.bmp
57.318000000000005	4.0	1	1	1.043	twirt.bmp	stirt.bmp
61.36000000000001	4.4	3	1	1.287	slurl.bmp	dirl.bmp
65.803	4.4	4	1	0.794	blease.bmp	seaf.bmp
70.22800000000001	4.4	5	1	0.99	blackcross.bmp	blackcross.bmp
74.654	4.8	5	1	1.085	blackcross.bmp	blackcross.bmp
79.49700000000001	4.8	4	1	0.837	quarf.bmp	ralve.bmp
84.32399999999998	4.8	6	1	0.645	m.bmp	n.bmp
89.15099999999998	4.8	1	1	0.827	clurl.bmp	turl.bmp
93.977	4.8	6	1	0.559	r.bmp	s.bmp
98.804	4.0	5	1	1.403	blackcross.bmp	blackcross.bmp
102.845	4.0	3	0	0.802	brunge.bmp	skonge.bmp
106.887	4.0	4	1	0.923	strough.bmp	wouth.bmp
110.929	4.4	6	1	1.27	l.bmp	d.bmp
115.35499999999999	4.4	5	1	1.109	blackcross.bmp	blackcross.bmp
119.78	4.4	5	1	1.131	blackcross.bmp	blackcross.bmp
124.20599999999999	4.4	5	1	1.113	blackcross.bmp	blackcross.bmp
128.632	4.8	5	1	1.035	blackcross.bmp	blackcross.bmp
133.475	4.8	1	1	0.876	crense.bmp	nense.bmp
138.302	4.8	5	1	1.076	blackcross.bmp	blackcross.bmp
143.128	4.0	2	0	0.936	twough.bmp	drough.bmp
147.18699999999998	4.0	2	0	0.908	twarf.bmp	starf.bmp
151.212	4.0	5	1	1.01	blackcross.bmp	blackcross.bmp
155.253	4.0	2	0	0.855	meaf.bmp	teaf.bmp
159.295	4.0	6	1	0.634	t.bmp	u.bmp
163.32	4.4	5	1	1.072	blackcross.bmp	blackcross.bmp
167.74599999999998	4.4	5	1	1.05	blackcross.bmp	blackcross.bmp
172.171	4.4	5	1	1.102	blackcross.bmp	blackcross.bmp
176.59699999999998	4.4	5	1	1.035	blackcross.bmp	blackcross.bmp
181.023	4.4	5	1	1.073	blackcross.bmp	blackcross.bmp
185.482	4.8	4	1	1.085	vood.bmp	shase.bmp
190.326	4.8	3	1	1.018	glutch.bmp	nuch.bmp
195.16899999999998	4.8	4	1	0.775	plange.bmp	jase.bmp
199.995	4.8	5	1	1.236	blackcross.bmp	blackcross.bmp
204.822	4.0	6	1	0.651	c.bmp	u.bmp
208.864	4.4	2	0	0.987	slange.bmp	prange.bmp
213.306	4.0	1	1	0.891	vearn.bmp	glearn.bmp
217.34799999999998	4.0	2	0	1.006	zalve.bmp	walve.bmp
221.38899999999998	4.0	6	1	1.079	j.bmp	b.bmp
225.431	4.0	4	1	0.859	sharf.bmp	twove.bmp
229.47299999999998	4.0	3	1	0.776	chelm.bmp	swealm.bmp
233.49800000000002	4.0	5	1	0.839	blackcross.bmp	blackcross.bmp
237.523	4.0	5	1	0.861	blackcross.bmp	blackcross.bmp
241.564	4.4	2	0	0.768	plown.bmp	rown.bmp
245.98999999999998	4.4	5	1	1.001	blackcross.bmp	blackcross.bmp
250.41599999999997	4.4	5	1	1.01	blackcross.bmp	blackcross.bmp
254.87499999999997	4.4	2	0	0.951	glead.bmp	jead.bmp
259.31800000000004	4.4	3	1	1.43	shrune.bmp	hoon.bmp
263.76000000000005	4.4	3	1	0.894	pript.bmp	shrypt.bmp
268.20300000000003	4.4	6	1	0.479	g.bmp	h.bmp
272.64500000000004	4.4	4	1	0.98	splour.bmp	morth.bmp
277.071	4.4	5	1	0.871	blackcross.bmp	blackcross.bmp
281.51300000000003	4.4	4	1	0.703	learth.bmp	plost.bmp
285.956	4.8	4	1	0.594	neaf.bmp	shrease.bmp
290.79900000000004	4.8	4	1	0.876	scose.bmp	brost.bmp
295.642	4.8	1	1	0.876	plipt.bmp	bipt.bmp
300.48600000000005	4.8	6	1	0.577	o.bmp	p.bmp
305.312	4.8	5	1	0.868	blackcross.bmp	blackcross.bmp
310.156	4.8	4	1	0.744	spouth.bmp	zull.bmp
314.982	4.0	4	1	0.651	drose.bmp	crange.bmp
319.024	4.0	1	1	0.975	swault.bmp	lault.bmp
323.065	4.0	3	1	0.883	derb.bmp	shurb.bmp
327.107	4.0	3	1	1.005	nerge.bmp	yurge.bmp
331.149	4.4	3	1	0.83	yeal.bmp	sheel.bmp
335.57500000000005	4.4	4	1	0.821	glough.bmp	vown.bmp
340.017	4.4	1	1	1.356	twide.bmp	stide.bmp
344.44300000000004	4.4	6	1	0.576	c.bmp	d.bmp
348.88500000000005	4.8	1	1	0.997	preash.bmp	sleash.bmp
353.71200000000005	4.8	6	1	0.675	k.bmp	t.bmp
358.555	4.8	2	0	1.456	zow.bmp	shrow.bmp
363.398	4.8	4	1	0.884	vead.bmp	slood.bmp
368.225	4.8	5	1	0.903	blackcross.bmp	blackcross.bmp
